SensorId, TimeStamp (s), FrameNumber, AccX (g), AccY (g), AccZ (g), GyroX (deg/s), GyroY (deg/s), GyroZ (deg/s), MagX (uT), MagY (uT), MagZ (uT), EulerX (deg), EulerY (deg), EulerZ (deg), QuatW, QuatX, QuatY, QuatZ, LinAccX (g), LinAccY (g), LinAccZ (g), Pressure (kPa), Altitude (m), Temperature (degC), HeaveMotion (m)
1, -0.0000, 0, 0.89257443, 0.07326002, 0.41032308, 1.35738921, -6.16940880, 6.93741846, 0.00000000, 0.00000000, 0.00000000, -170.30418396, 64.15576935, -113.04662323, -0.48088655, -0.42827564, 0.72899234, 0.23216020, 0.00740791, 0.00015797, 0.01937655, 0.00000000, 0.00000000, 0.00000000, 0.00000000
1, 0.0025, 1, 0.88874763, 0.06743336, 0.40782729, 1.56791544, -5.54110718, 6.94296455, 0.00000000, 0.00000000, 0.00000000, -170.33079529, 64.17233276, -113.08054352, -0.48095417, -0.42812070, 0.72900701, 0.23225987, 0.01136071, 0.00574135, 0.02164963, 0.00000000, 0.00000000, 0.00000000, 0.00000000
1, 0.0050, 2, 0.89172322, 0.06358020, 0.40637046, 1.63870263, -5.40074348, 6.87472916, 0.00000000, 0.00000000, 0.00000000, -170.35704041, 64.18850708, -113.11424255, -0.48102054, -0.42796680, 0.72902286, 0.23235638, 0.00850827, 0.00935518, 0.02288920, 0.00000000, 0.00000000, 0.00000000, 0.00000000
1, 0.0075, 3, 0.89131713, 0.05973254, 0.40147710, 1.56716919, -5.12242413, 6.87513494, 0.00000000, 0.00000000, 0.00000000, -170.38372803, 64.20404816, -113.14824677, -0.48108175, -0.42781499, 0.72904116, 0.23245141, 0.00903201, 0.01296217, 0.02757625, 0.00000000, 0.00000000, 0.00000000, 0.00000000
1, 0.0100, 4, 0.89139342, 0.05490647, 0.39804378, 1.49521768, -4.84471369, 6.94530249, 0.00000000, 0.00000000, 0.00000000, -170.41123962, 64.21887207, -113.18294525, -0.48113760, -0.42766431, 0.72906274, 0.23254576, 0.00906849, 0.01754339, 0.03081451, 0.00000000, 0.00000000, 0.00000000, 0.00000000
1, 0.0125, 5, 0.89048541, 0.05104498, 0.39460745, 1.63556838, -4.42584515, 6.94899988, 0.00000000, 0.00000000, 0.00000000, -170.43881226, 64.23267365, -113.21810913, -0.48118800, -0.42751417, 0.72908938, 0.23263398, 0.01008123, 0.02116247, 0.03407172, 0.00000000, 0.00000000, 0.00000000, 0.00000000
1, 0.0150, 6, 0.89298409, 0.04915154, 0.39023453, 1.63504601, -3.93687367, 6.81172991, 0.00000000, 0.00000000, 0.00000000, -170.46614075, 64.24520874, -113.25299835, -0.48123124, -0.42736861, 0.72911984, 0.23271617, 0.00767761, 0.02281877, 0.03828481, 0.00000000, 0.00000000, 0.00000000, 0.00000000
1, 0.0175, 7, 0.89396369, 0.04818329, 0.39072451, 1.84718382, -3.58607030, 6.67646313, 0.00000000, 0.00000000, 0.00000000, -170.49258423, 64.25681305, -113.28746796, -0.48127162, -0.42722479, 0.72915381, 0.23279032, 0.00678599, 0.02355916, 0.03764805, 0.00000000, 0.00000000, 0.00000000, 0.00000000
1, 0.0200, 8, 0.89248073, 0.04718243, 0.39362970, 1.91780722, -3.23606062, 6.53943014, 0.00000000, 0.00000000, 0.00000000, -170.51846313, 64.26748657, -113.32154083, -0.48130777, -0.42708418, 0.72919053, 0.23285864, 0.00834990, 0.02433883, 0.03460974, 0.00000000, 0.00000000, 0.00000000, 0.00000000
1, 0.0225, 9, 0.89302748, 0.04429988, 0.39021009, 1.91686702, -2.74769831, 6.47192287, 0.00000000, 0.00000000, 0.00000000, -170.54444885, 64.27693176, -113.35569000, -0.48133647, -0.42694715, 0.72923172, 0.23292170, 0.00787467, 0.02700281, 0.03791536, 0.00000000, 0.00000000, 0.00000000, 0.00000000
1, 0.0250, 10, 0.89502424, 0.04239262, 0.38729420, 1.91634464, -2.25872707, 6.33465147, 0.00000000, 0.00000000, 0.00000000, -170.58712769, 64.29791260, -113.40928650, -0.48141116, -0.42672139, 0.72927040, 0.23305969, 0.00603682, 0.02853719, 0.04055879, 0.00000000, 0.00000000, 0.00000000, 0.00000000
1, 0.0275, 11, 0.89504230, 0.04142959, 0.38631535, 1.91727006, -1.83760834, 5.98777151, 0.00000000, 0.00000000, 0.00000000, -170.61146545, 64.30487823, -113.44161224, -0.48142779, -0.42659661, 0.72931659, 0.23310918, 0.00607139, 0.02930058, 0.04145942, 0.00000000, 0.00000000, 0.00000000, 0.00000000
1, 0.0300, 12, 0.89697540, 0.04240409, 0.38730997, 1.70563924, -1.76790178, 5.84592152, 0.00000000, 0.00000000, 0.00000000, -170.63566589, 64.31161499, -113.47320557, -0.48144212, -0.42647675, 0.72936118, 0.23315991, 0.00418937, 0.02812808, 0.04039002, 0.00000000, 0.00000000, 0.00000000, 0.00000000
1, 0.0325, 13, 0.89989716, 0.04192882, 0.38830519, 1.63497150, -1.34839737, 5.63768339, 0.00000000, 0.00000000, 0.00000000, -170.65936279, 64.31722260, -113.50404358, -0.48145005, -0.42636296, 0.72940773, 0.23320563, 0.00130999, 0.02841213, 0.03933677, 0.00000000, 0.00000000, 0.00000000, 0.00000000
1, 0.0350, 14, 0.90086299, 0.04143843, 0.38977155, 1.49412823, -1.13832700, 5.42759705, 0.00000000, 0.00000000, 0.00000000, -170.68252563, 64.32221985, -113.53387451, -0.48145443, -0.42625511, 0.72945386, 0.23324946, 0.00038201, 0.02871694, 0.03782108, 0.00000000, 0.00000000, 0.00000000, 0.00000000
1, 0.0375, 15, 0.90278310, 0.04386842, 0.39077353, 1.42407262, -0.78789294, 5.14927387, 0.00000000, 0.00000000, 0.00000000, -170.70472717, 64.32625580, -113.56246948, -0.48145401, -0.42615417, 0.72950077, 0.23328821, -0.00150758, 0.02611101, 0.03678379, 0.00000000, 0.00000000, 0.00000000, 0.00000000
1, 0.0400, 16, 0.90474260, 0.04242074, 0.39126897, 1.21311367, -0.50732255, 4.79910231, 0.00000000, 0.00000000, 0.00000000, -170.72590637, 64.32944489, -113.58933258, -0.48144892, -0.42606243, 0.72954625, 0.23332404, -0.00344300, 0.02739251, 0.03626478, 0.00000000, 0.00000000, 0.00000000, 0.00000000
1, 0.0425, 17, 0.90615255, 0.04629606, 0.39324829, 1.00231886, -0.43639821, 4.51772738, 0.00000000, 0.00000000, 0.00000000, -170.74623108, 64.33234406, -113.61468506, -0.48144218, -0.42597777, 0.72958881, 0.23335959, -0.00483102, 0.02335819, 0.03426523, 0.00000000, 0.00000000, 0.00000000, 0.00000000
1, 0.0450, 18, 0.90902436, 0.04822470, 0.39717761, 0.93223327, -0.22593124, 4.30852365, 0.00000000, 0.00000000, 0.00000000, -170.76585388, 64.33463287, -113.63902283, -0.48143247, -0.42589816, 0.72963119, 0.23339207, -0.00768554, 0.02127742, 0.03032428, 0.00000000, 0.00000000, 0.00000000, 0.00000000
1, 0.0475, 19, 0.90898710, 0.04868429, 0.40058893, 0.51000208, -0.15497927, 3.88497543, 0.00000000, 0.00000000, 0.00000000, -170.78440857, 64.33658600, -113.66101074, -0.48141989, -0.42583019, 0.72966826, 0.23342620, -0.00763369, 0.02067458, 0.02690528, 0.00000000, 0.00000000, 0.00000000, 0.00000000
1, 0.0500, 20, 0.91088915, 0.05207731, 0.40256977, 0.22925608, -0.22320111, 3.53231049, 0.00000000, 0.00000000, 0.00000000, -170.80178833, 64.33852386, -113.68093872, -0.48140755, -0.42577040, 0.72969991, 0.23346172, -0.00952089, 0.01714687, 0.02491498, 0.00000000, 0.00000000, 0.00000000, 0.00000000
1, 0.0525, 21, 0.91278136, 0.05497420, 0.40600911, -0.19339284, -0.15285794, 3.17852473, 0.00000000, 0.00000000, 0.00000000, -170.81846619, 64.34016418, -113.69889832, -0.48139209, -0.42572111, 0.72972685, 0.23349963, -0.01140070, 0.01412143, 0.02147013, 0.00000000, 0.00000000, 0.00000000, 0.00000000
1, 0.0550, 22, 0.91569483, 0.05595808, 0.40652466, -0.61501193, -0.15097636, 2.68489218, 0.00000000, 0.00000000, 0.00000000, -170.83366394, 64.34162903, -113.71406555, -0.48137510, -0.42568406, 0.72974706, 0.23353902, -0.01430309, 0.01302050, 0.02095056, 0.00000000, 0.00000000, 0.00000000, 0.00000000
1, 0.0575, 23, 0.91465521, 0.05834529, 0.41091186, -1.03810859, -0.22120914, 2.46998715, 0.00000000, 0.00000000, 0.00000000, -170.84877014, 64.34316254, -113.72793579, -0.48135635, -0.42565447, 0.72976232, 0.23358351, -0.01325209, 0.01051681, 0.01655773, 0.00000000, 0.00000000, 0.00000000, 0.00000000
1, 0.0600, 24, 0.91560262, 0.05832910, 0.41384163, -1.67325354, -0.22234395, 2.18299437, 0.00000000, 0.00000000, 0.00000000, -170.86398315, 64.34456635, -113.74015808, -0.48133332, -0.42563623, 0.72977179, 0.23363517, -0.01418877, 0.01041596, 0.01362420, 0.00000000, 0.00000000, 0.00000000, 0.00000000
1, 0.0625, 25, 0.91458184, 0.06073093, 0.41628090, -2.09696198, -0.22350636, 2.03817391, 0.00000000, 0.00000000, 0.00000000, -170.87950134, 64.34593964, -113.75158691, -0.48130694, -0.42562461, 0.72977763, 0.23369201, -0.01315761, 0.00789485, 0.01118240, 0.00000000, 0.00000000, 0.00000000, 0.00000000
1, 0.0650, 26, 0.91553104, 0.06315884, 0.41678798, -2.52008843, -0.43370602, 1.89238751, 0.00000000, 0.00000000, 0.00000000, -170.89517212, 64.34774780, -113.76197052, -0.48128080, -0.42561874, 0.72977775, 0.23375602, -0.01409310, 0.00534555, 0.01066577, 0.00000000, 0.00000000, 0.00000000, 0.00000000
1, 0.0675, 27, 0.91649258, 0.06315362, 0.41825682, -2.87348723, -0.57504761, 1.88733065, 0.00000000, 0.00000000, 0.00000000, -170.91157532, 64.34992218, -113.77220917, -0.48125365, -0.42561594, 0.72977459, 0.23382692, -0.01503825, 0.00522295, 0.00918296, 0.00000000, 0.00000000, 0.00000000, 0.00000000
1, 0.0700, 28, 0.91741824, 0.06556326, 0.42119884, -3.22702074, -0.36677608, 1.74435890, 0.00000000, 0.00000000, 0.00000000, -170.92832947, 64.35153198, -113.78182220, -0.48122063, -0.42562017, 0.72977048, 0.23390003, -0.01595194, 0.00268452, 0.00623611, 0.00000000, 0.00000000, 0.00000000, 0.00000000
1, 0.0725, 29, 0.91544360, 0.06553351, 0.42361799, -3.57880759, -0.78561640, 1.59848893, 0.00000000, 0.00000000, 0.00000000, -170.94483948, 64.35407257, -113.79023743, -0.48119175, -0.42562827, 0.72975886, 0.23398109, -0.01395792, 0.00258458, 0.00379673, 0.00000000, 0.00000000, 0.00000000, 0.00000000
1, 0.0750, 30, 0.91639537, 0.06503216, 0.42654532, -3.86080718, -0.85566455, 1.45511138, 0.00000000, 0.00000000, 0.00000000, -170.96496582, 64.36109924, -113.80213165, -0.48118320, -0.42561579, 0.72973692, 0.23408958, -0.01485658, 0.00291853, 0.00078422, 0.00000000, 0.00000000, 0.00000000, 0.00000000
1, 0.0775, 31, 0.91538823, 0.06695613, 0.42800817, -4.14367294, -1.06689739, 1.52037752, 0.00000000, 0.00000000, 0.00000000, -170.98226929, 64.36433411, -113.80984497, -0.48115394, -0.42562965, 0.72971869, 0.23418142, -0.01382506, 0.00085750, -0.00070819, 0.00000000, 0.00000000, 0.00000000, 0.00000000
1, 0.0800, 32, 0.91292751, 0.06936762, 0.42800066, -4.42712069, -1.06909287, 1.58660984, 0.00000000, 0.00000000, 0.00000000, -171.00064087, 64.36759186, -113.81793213, -0.48112175, -0.42564538, 0.72969961, 0.23427849, -0.01133967, -0.00169894, -0.00072971, 0.00000000, 0.00000000, 0.00000000, 0.00000000
1, 0.0825, 33, 0.91291273, 0.06837901, 0.43043068, -4.63836288, -1.13874424, 1.44411492, 0.00000000, 0.00000000, 0.00000000, -171.01873779, 64.37097168, -113.82513428, -0.48108941, -0.42566529, 0.72967732, 0.23437805, -0.01129943, -0.00085357, -0.00319085, 0.00000000, 0.00000000, 0.00000000, 0.00000000
1, 0.0850, 34, 0.91093081, 0.07127488, 0.43091658, -4.70892572, -1.20882010, 1.44291031, 0.00000000, 0.00000000, 0.00000000, -171.03694153, 64.37451172, -113.83228302, -0.48105755, -0.42568555, 0.72965395, 0.23447938, -0.00929076, -0.00389400, -0.00371045, 0.00000000, 0.00000000, 0.00000000, 0.00000000
1, 0.0875, 35, 0.90943992, 0.07222199, 0.43285757, -4.92081022, -1.34936833, 1.43961859, 0.00000000, 0.00000000, 0.00000000, -171.05555725, 64.37841034, -113.83930206, -0.48102599, -0.42570737, 0.72962803, 0.23458536, -0.00777048, -0.00498948, -0.00569010, 0.00000000, 0.00000000, 0.00000000, 0.00000000
1, 0.0900, 36, 0.90943992, 0.07222199, 0.43285757, -4.92081022, -1.34936833, 1.43961859, 0.00000000, 0.00000000, 0.00000000, -171.07418823, 64.38230133, -113.84630585, -0.48099440, -0.42572919, 0.72960204, 0.23469134, -0.00774110, -0.00513787, -0.00572878, 0.00000000, 0.00000000, 0.00000000, 0.00000000
1, 0.0925, 37, 0.90648669, 0.07462696, 0.43333307, -5.13269424, -1.48991644, 1.43632674, 0.00000000, 0.00000000, 0.00000000, -171.09323120, 64.38653564, -113.85318756, -0.48096308, -0.42575255, 0.72957349, 0.23480195, -0.00475592, -0.00769498, -0.00624791, 0.00000000, 0.00000000, 0.00000000, 0.00000000
1, 0.0950, 38, 0.90648669, 0.07462696, 0.43333307, -5.13269424, -1.48991644, 1.43632674, 0.00000000, 0.00000000, 0.00000000, -171.11227417, 64.39076233, -113.86006927, -0.48093170, -0.42577586, 0.72954488, 0.23491253, -0.00472403, -0.00784723, -0.00629142, 0.00000000, 0.00000000, 0.00000000, 0.00000000
1, 0.0975, 39, 0.90450555, 0.07850047, 0.43284988, -5.27510452, -1.77186155, 1.71232343, 0.00000000, 0.00000000, 0.00000000, -171.13285828, 64.39581299, -113.86827087, -0.48090214, -0.42579487, 0.72951514, 0.23503092, -0.00270480, -0.01188638, -0.00586271, 0.00000000, 0.00000000, 0.00000000, 0.00000000
1, 0.1000, 40, 0.90450555, 0.07850047, 0.43284988, -5.27510452, -1.77186155, 1.71232343, 0.00000000, 0.00000000, 0.00000000, -171.15344238, 64.40084076, -113.87648773, -0.48087254, -0.42581388, 0.72948539, 0.23514929, -0.00266689, -0.01205202, -0.00591704, 0.00000000, 0.00000000, 0.00000000, 0.00000000
1, 0.1025, 41, 0.89910793, 0.07990979, 0.43476176, -5.27558184, -2.05240393, 1.92032266, 0.00000000, 0.00000000, 0.00000000, -171.17488098, 64.40664673, -113.88563538, -0.48084635, -0.42582816, 0.72945464, 0.23527247, 0.00277454, -0.01363515, -0.00789440, 0.00000000, 0.00000000, 0.00000000, 0.00000000
1, 0.1050, 42, 0.89910793, 0.07990979, 0.43476176, -5.27558184, -2.05240393, 1.92032266, 0.00000000, 0.00000000, 0.00000000, -171.19633484, 64.41245270, -113.89479828, -0.48082012, -0.42584243, 0.72942388, 0.23539564, 0.00281835, -0.01380899, -0.00795990, 0.00000000, 0.00000000, 0.00000000, 0.00000000
1, 0.1075, 43, 0.89465553, 0.08472102, 0.43669862, -5.55564213, -2.81924343, 1.77372491, 0.00000000, 0.00000000, 0.00000000, -171.21713257, 64.42010498, -113.90243530, -0.48080423, -0.42585799, 0.72938222, 0.23552884, 0.00732839, -0.01879348, -0.00999168, 0.00000000, 0.00000000, 0.00000000, 0.00000000
1, 0.1100, 44, 0.89565098, 0.08620784, 0.43330497, -5.69841051, -2.82186317, 1.98124719, 0.00000000, 0.00000000, 0.00000000, -171.23934937, 64.42781830, -113.91129303, -0.48078603, -0.42587173, 0.72934175, 0.23566651, 0.00639105, -0.02046433, -0.00669277, 0.00000000, 0.00000000, 0.00000000, 0.00000000
1, 0.1125, 45, 0.89760613, 0.08524533, 0.43380284, -5.48577976, -3.09999824, 2.05236912, 0.00000000, 0.00000000, 0.00000000, -171.26119995, 64.43627930, -113.92030334, -0.48077384, -0.42588067, 0.72930008, 0.23580413, 0.00449944, -0.01968468, -0.00729695, 0.00000000, 0.00000000, 0.00000000, 0.00000000
1, 0.1150, 46, 0.89271808, 0.08423170, 0.43570641, -5.48439217, -3.44778490, 1.98099649, 0.00000000, 0.00000000, 0.00000000, -171.28240967, 64.44553375, -113.92863464, -0.48076755, -0.42588893, 0.72925413, 0.23594420, 0.00945741, -0.01885109, -0.00932059, 0.00000000, 0.00000000, 0.00000000, 0.00000000
1, 0.1175, 47, 0.89221722, 0.08568432, 0.43570980, -5.48419809, -3.51746416, 1.98067451, 0.00000000, 0.00000000, 0.00000000, -171.30357361, 64.45497894, -113.93688965, -0.48076236, -0.42589682, 0.72920740, 0.23608491, 0.01002938, -0.02048372, -0.00944677, 0.00000000, 0.00000000, 0.00000000, 0.00000000
1, 0.1200, 48, 0.89312088, 0.09003098, 0.43914860, -5.48281002, -3.86525083, 1.90930176, 0.00000000, 0.00000000, 0.00000000, -171.32411194, 64.46523285, -113.94445038, -0.48076308, -0.42590407, 0.72915632, 0.23622808, 0.00920284, -0.02500750, -0.01302227, 0.00000000, 0.00000000, 0.00000000, 0.00000000
1, 0.1225, 49, 0.89170480, 0.09054773, 0.43378240, -5.76442194, -4.07465744, 1.76528037, 0.00000000, 0.00000000, 0.00000000, -171.34442139, 64.47597504, -113.95101166, -0.48076525, -0.42591545, 0.72910029, 0.23637615, 0.01069975, -0.02570087, -0.00780016, 0.00000000, 0.00000000, 0.00000000, 0.00000000
1, 0.1250, 50, 0.89371532, 0.08816260, 0.42989007, -5.97630596, -4.21520519, 1.76198864, 0.00000000, 0.00000000, 0.00000000, -171.34887695, 64.48377991, -113.93934631, -0.48077133, -0.42598480, 0.72901976, 0.23648691, 0.00874794, -0.02336732, -0.00402436, 0.00000000, 0.00000000, 0.00000000, 0.00000000
1, 0.1275, 51, 0.89278239, 0.08232757, 0.43082681, -5.90515995, -4.35416698, 1.76222706, 0.00000000, 0.00000000, 0.00000000, -171.36933899, 64.49520874, -113.94567108, -0.48077664, -0.42599624, 0.72896004, 0.23663978, 0.00976676, -0.01771137, -0.00511590, 0.00000000, 0.00000000, 0.00000000, 0.00000000
1, 0.1300, 52, 0.89082468, 0.07986835, 0.43372071, -5.90354824, -4.63166618, 1.62141383, 0.00000000, 0.00000000, 0.00000000, -171.38887024, 64.50727081, -113.95095062, -0.48078701, -0.42600843, 0.72889602, 0.23679370, 0.01181507, -0.01542568, -0.00817555, 0.00000000, 0.00000000, 0.00000000, 0.00000000
1, 0.1325, 53, 0.89374757, 0.08085954, 0.43326229, -5.61996651, -4.97908354, 1.69309652, 0.00000000, 0.00000000, 0.00000000, -171.40779114, 64.52020264, -113.95635986, -0.48080522, -0.42601475, 0.72883052, 0.23694710, 0.00898927, -0.01658789, -0.00789747, 0.00000000, 0.00000000, 0.00000000, 0.00000000
1, 0.1350, 54, 0.89228016, 0.08182492, 0.43276837, -5.47825813, -5.04796886, 1.69453955, 0.00000000, 0.00000000, 0.00000000, -171.42633057, 64.53331757, -113.96171570, -0.48082581, -0.42601916, 0.72876501, 0.23709890, 0.01055515, -0.01772169, -0.00758705, 0.00000000, 0.00000000, 0.00000000, 0.00000000
1, 0.1375, 55, 0.89475274, 0.08284248, 0.42841014, -5.40811253, -4.97850180, 1.76550663, 0.00000000, 0.00000000, 0.00000000, -171.44512939, 64.54626465, -113.96755981, -0.48084557, -0.42602208, 0.72870123, 0.23724967, 0.00817978, -0.01890910, -0.00340980, 0.00000000, 0.00000000, 0.00000000, 0.00000000
1, 0.1400, 56, 0.89678532, 0.07852035, 0.42402104, -5.40708303, -5.04696321, 1.62565958, 0.00000000, 0.00000000, 0.00000000, -171.46315002, 64.55936432, -113.97254181, -0.48086715, -0.42602682, 0.72863537, 0.23739959, 0.00624538, -0.01475126, 0.00079542, 0.00000000, 0.00000000, 0.00000000, 0.00000000
1, 0.1425, 57, 0.89580649, 0.07411523, 0.42837402, -5.12363577, -5.04476786, 1.55942762, 0.00000000, 0.00000000, 0.00000000, -171.48013306, 64.57241821, -113.97716522, -0.48089164, -0.42602965, 0.72857040, 0.23754428, 0.00732207, -0.01050251, -0.00374207, 0.00000000, 0.00000000, 0.00000000, 0.00000000
1, 0.1450, 58, 0.89482039, 0.07263573, 0.43079370, -5.05207205, -5.18312073, 1.48990333, 0.00000000, 0.00000000, 0.00000000, -171.49647522, 64.58577728, -113.98128510, -0.48091927, -0.42603207, 0.72850364, 0.23768836, 0.00840825, -0.00917535, -0.00635195, 0.00000000, 0.00000000, 0.00000000, 0.00000000
1, 0.1475, 59, 0.89771575, 0.07458264, 0.43228808, -4.83985996, -5.46186495, 1.63078785, 0.00000000, 0.00000000, 0.00000000, -171.51281738, 64.59987640, -113.98598480, -0.48095265, -0.42602861, 0.72843641, 0.23783316, 0.00561845, -0.01127611, -0.00804821, 0.00000000, 0.00000000, 0.00000000, 0.00000000
1, 0.1500, 60, 0.89818728, 0.07799263, 0.43084821, -5.05129576, -5.46183729, 1.48861516, 0.00000000, 0.00000000, 0.00000000, -171.52894592, 64.61392975, -113.98987579, -0.48098481, -0.42602959, 0.72836673, 0.23797981, 0.00525212, -0.01483827, -0.00680968, 0.00000000, 0.00000000, 0.00000000, 0.00000000
1, 0.1525, 61, 0.90024036, 0.07612921, 0.42208850, -5.26415014, -5.25399017, 1.48693359, 0.00000000, 0.00000000, 0.00000000, -171.54579163, 64.62747192, -113.99394226, -0.48101163, -0.42603394, 0.72829807, 0.23812790, 0.00330031, -0.01313083, 0.00175738, 0.00000000, 0.00000000, 0.00000000, 0.00000000
1, 0.1550, 62, 0.90177435, 0.06984162, 0.42060760, -5.40563536, -5.11481667, 1.41605008, 0.00000000, 0.00000000, 0.00000000, -171.56272888, 64.64065552, -113.99773407, -0.48103529, -0.42604157, 0.72822946, 0.23827620, 0.00186491, -0.00699905, 0.00305143, 0.00000000, 0.00000000, 0.00000000, 0.00000000
1, 0.1575, 63, 0.90126520, 0.06640240, 0.42594337, -5.26389647, -5.04373503, 1.34837508, 0.00000000, 0.00000000, 0.00000000, -171.57902527, 64.65361786, -114.00120544, -0.48105949, -0.42604917, 0.72816169, 0.23842086, 0.00247091, -0.00371027, -0.00246888, 0.00000000, 0.00000000, 0.00000000, 0.00000000
1, 0.1600, 64, 0.90368617, 0.06737977, 0.42694196, -5.33404160, -5.11320257, 1.27740777, 0.00000000, 0.00000000, 0.00000000, -171.59509277, 64.66674042, -114.00421906, -0.48108450, -0.42605826, 0.72809219, 0.23856653, 0.00014794, -0.00483659, -0.00365439, 0.00000000, 0.00000000, 0.00000000, 0.00000000
1, 0.1625, 65, 0.90665948, 0.06694470, 0.42258033, -5.33304167, -5.32163048, 1.20667934, 0.00000000, 0.00000000, 0.00000000, -171.61062622, 64.68033600, -114.00664520, -0.48111317, -0.42606738, 0.72801977, 0.23871337, -0.00272381, -0.00454755, 0.00051186, 0.00000000, 0.00000000, 0.00000000, 0.00000000
1, 0.1650, 66, 0.90574223, 0.06307590, 0.42011797, -5.33339977, -5.04230547, 1.13820493, 0.00000000, 0.00000000, 0.00000000, -171.62603760, 64.69321442, -114.00894928, -0.48113769, -0.42607895, 0.72794962, 0.23885687, -0.00171047, -0.00082216, 0.00278986, 0.00000000, 0.00000000, 0.00000000, 0.00000000
1, 0.1675, 67, 0.90527540, 0.05966956, 0.42107087, -5.47488499, -4.90313244, 1.06732154, 0.00000000, 0.00000000, 0.00000000, -171.64154053, 64.70572662, -114.01094818, -0.48115909, -0.42609391, 0.72787952, 0.23900060, -0.00115019, 0.00244109, 0.00165841, 0.00000000, 0.00000000, 0.00000000, 0.00000000
1, 0.1700, 68, 0.90674782, 0.05919665, 0.42059326, -5.61675835, -4.62459993, 0.99708205, 0.00000000, 0.00000000, 0.00000000, -171.65722656, 64.71753693, -114.01279449, -0.48117512, -0.42611292, 0.72781098, 0.23914325, -0.00253469, 0.00277105, 0.00196871, 0.00000000, 0.00000000, 0.00000000, 0.00000000
1, 0.1725, 69, 0.90920484, 0.05824797, 0.41963413, -5.68629169, -4.76313734, 0.85603052, 0.00000000, 0.00000000, 0.00000000, -171.67228699, 64.72962952, -114.01371765, -0.48119342, -0.42613417, 0.72773927, 0.23928681, -0.00490159, 0.00358112, 0.00275531, 0.00000000, 0.00000000, 0.00000000, 0.00000000
1, 0.1750, 70, 0.91169703, 0.05390678, 0.41817093, -5.75582504, -4.90167522, 0.71497893, 0.00000000, 0.00000000, 0.00000000, -171.69213867, 64.74452972, -114.01986694, -0.48122165, -0.42613393, 0.72766668, 0.23945101, -0.00728273, 0.00774195, 0.00400695, 0.00000000, 0.00000000, 0.00000000, 0.00000000
1, 0.1775, 71, 0.91121757, 0.05244476, 0.41864663, -5.75334787, -5.03798866, 0.36552247, 0.00000000, 0.00000000, 0.00000000, -171.70457458, 64.75714874, -114.01772308, -0.48124623, -0.42616221, 0.72758716, 0.23959301, -0.00670940, 0.00908356, 0.00334790, 0.00000000, 0.00000000, 0.00000000, 0.00000000
1, 0.1800, 72, 0.91119879, 0.05243015, 0.42059457, -5.68114281, -5.10544491, 0.15679561, 0.00000000, 0.00000000, 0.00000000, -171.71569824, 64.76982880, -114.01432037, -0.48127365, -0.42619267, 0.72750533, 0.23973231, -0.00659627, 0.00898740, 0.00121367, 0.00000000, 0.00000000, 0.00000000, 0.00000000
1, 0.1825, 73, 0.90924031, 0.05534428, 0.41864550, -5.82104588, -5.38373709, 0.01421734, 0.00000000, 0.00000000, 0.00000000, -171.72621155, 64.78312683, -114.00985718, -0.48130491, -0.42622539, 0.72741848, 0.23987491, -0.00453884, 0.00596555, 0.00296578, 0.00000000, 0.00000000, 0.00000000, 0.00000000
1, 0.1850, 74, 0.91370499, 0.05445092, 0.41185838, -5.96194839, -5.45360041, -0.05763232, 0.00000000, 0.00000000, 0.00000000, -171.73664856, 64.79663086, -114.00492096, -0.48133627, -0.42626032, 0.72732943, 0.24001960, -0.00890315, 0.00675155, 0.00955364, 0.00000000, 0.00000000, 0.00000000, 0.00000000
1, 0.1875, 75, 0.91569555, 0.05058473, 0.41136760, -5.88810158, -5.65858889, -0.47629070, 0.00000000, 0.00000000, 0.00000000, -171.74455261, 64.81045532, -113.99737549, -0.48137382, -0.42630011, 0.72723478, 0.24016066, -0.01079094, 0.01052833, 0.00983667, 0.00000000, 0.00000000, 0.00000000, 0.00000000
1, 0.1900, 76, 0.91564351, 0.05005571, 0.41720897, -6.09979153, -5.86881590, -0.47990453, 0.00000000, 0.00000000, 0.00000000, -171.75280762, 64.82479858, -113.98965454, -0.48141268, -0.42634100, 0.72713673, 0.24030697, -0.01063240, 0.01096416, 0.00377989, 0.00000000, 0.00000000, 0.00000000, 0.00000000
1, 0.1925, 77, 0.91707551, 0.05199401, 0.41869152, -6.16890764, -6.00674391, -0.69071859, 0.00000000, 0.00000000, 0.00000000, -171.75999451, 64.83938599, -113.98056030, -0.48145422, -0.42638525, 0.72703487, 0.24045345, -0.01195616, 0.00893986, 0.00207648, 0.00000000, 0.00000000, 0.00000000, 0.00000000
1, 0.1950, 78, 0.91560853, 0.05344822, 0.41771305, -6.37937403, -6.35511208, -0.83450145, 0.00000000, 0.00000000, 0.00000000, -171.76672363, 64.85482788, -113.97036743, -0.48150000, -0.42643207, 0.72692686, 0.24060497, -0.01037461, 0.00740145, 0.00282088, 0.00000000, 0.00000000, 0.00000000, 0.00000000
1, 0.1975, 79, 0.91715002, 0.05107484, 0.41186887, -6.44926548, -6.21432495, -1.04402733, 0.00000000, 0.00000000, 0.00000000, -171.77259827, 64.86981964, -113.95905304, -0.48154405, -0.42648375, 0.72681803, 0.24075410, -0.01180494, 0.00969775, 0.00843674, 0.00000000, 0.00000000, 0.00000000, 0.00000000
1, 0.2000, 80, 0.91717273, 0.05011547, 0.41040301, -6.30627346, -6.14141655, -1.32099009, 0.00000000, 0.00000000, 0.00000000, -171.77670288, 64.88455963, -113.94617462, -0.48158970, -0.42653871, 0.72670805, 0.24089736, -0.01171845, 0.01059374, 0.00967664, 0.00000000, 0.00000000, 0.00000000, 0.00000000
1, 0.2025, 81, 0.91518682, 0.04763432, 0.41621882, -6.30321407, -6.48676825, -1.67141259, 0.00000000, 0.00000000, 0.00000000, -171.77868652, 64.90000916, -113.93096161, -0.48164269, -0.42659733, 0.72659123, 0.24104010, -0.00961811, 0.01302541, 0.00362116, 0.00000000, 0.00000000, 0.00000000, 0.00000000
1, 0.2050, 82, 0.91468638, 0.04957577, 0.41573769, -6.23042679, -6.76326180, -1.88110566, 0.00000000, 0.00000000, 0.00000000, -171.77915955, 64.91607666, -113.91427612, -0.48170179, -0.42665708, 0.72646987, 0.24118204, -0.00899875, 0.01104421, 0.00385162, 0.00000000, 0.00000000, 0.00000000, 0.00000000
1, 0.2075, 83, 0.91713119, 0.05106022, 0.41381681, -6.29848337, -6.82968473, -2.30088544, 0.00000000, 0.00000000, 0.00000000, -171.77752686, 64.93215179, -113.89509583, -0.48176345, -0.42672375, 0.72634351, 0.24132124, -0.01132464, 0.00953535, 0.00551927, 0.00000000, 0.00000000, 0.00000000, 0.00000000
1, 0.2100, 84, 0.91912353, 0.04963812, 0.41090336, -6.43674374, -7.24550819, -2.65339494, 0.00000000, 0.00000000, 0.00000000, -171.77403259, 64.94911957, -113.87347412, -0.48183233, -0.42679530, 0.72620875, 0.24146280, -0.01319158, 0.01094463, 0.00816328, 0.00000000, 0.00000000, 0.00000000, 0.00000000
1, 0.2125, 85, 0.91861296, 0.05059462, 0.41236523, -6.71796751, -7.59427309, -2.79806066, 0.00000000, 0.00000000, 0.00000000, -171.77018738, 64.96689606, -113.85068512, -0.48190483, -0.42687029, 0.72606748, 0.24161053, -0.01254964, 0.00997599, 0.00641900, 0.00000000, 0.00000000, 0.00000000, 0.00000000
1, 0.2150, 86, 0.92105055, 0.04865369, 0.41432312, -6.57667685, -7.66376781, -2.72685456, 0.00000000, 0.00000000, 0.00000000, -171.76629639, 64.98490143, -113.82825470, -0.48197934, -0.42694223, 0.72592682, 0.24175741, -0.01485432, 0.01190460, 0.00417546, 0.00000000, 0.00000000, 0.00000000, 0.00000000
1, 0.2175, 87, 0.92202401, 0.04572650, 0.41723827, -6.50366592, -7.86997318, -3.00598836, 0.00000000, 0.00000000, 0.00000000, -171.76058960, 65.00328064, -113.80400848, -0.48205918, -0.42701665, 0.72578174, 0.24190207, -0.01569217, 0.01483187, 0.00096640, 0.00000000, 0.00000000, 0.00000000, 0.00000000
1, 0.2200, 88, 0.91955787, 0.04715670, 0.41868681, -6.28997612, -8.07660198, -3.14383149, 0.00000000, 0.00000000, 0.00000000, -171.75340271, 65.02214813, -113.77873993, -0.48214507, -0.42708996, 0.72563434, 0.24204384, -0.01308697, 0.01341130, -0.00078496, 0.00000000, 0.00000000, 0.00000000, 0.00000000
1, 0.2225, 89, 0.91757625, 0.05054139, 0.41868812, -6.07567358, -8.35230160, -3.35175967, 0.00000000, 0.00000000, 0.00000000, -171.74433899, 65.04161072, -113.75199890, -0.48223838, -0.42716280, 0.72548318, 0.24218258, -0.01096195, 0.01004843, -0.00110054, 0.00000000, 0.00000000, 0.00000000, 0.00000000
1, 0.2250, 90, 0.91611254, 0.05004396, 0.41916084, -5.93251753, -8.48904037, -3.55992556, 0.00000000, 0.00000000, 0.00000000, -171.73902893, 65.06209564, -113.72975922, -0.48233327, -0.42721975, 0.72533715, 0.24233051, -0.00934744, 0.01053801, -0.00189966, 0.00000000, 0.00000000, 0.00000000, 0.00000000
1, 0.2275, 91, 0.91613752, 0.05201751, 0.41478777, -5.93068218, -8.69625187, -3.77017903, 0.00000000, 0.00000000, 0.00000000, -171.72706604, 65.08225250, -113.70021057, -0.48243549, -0.42729577, 0.72517908, 0.24246570, -0.00922412, 0.00860569, 0.00214496, 0.00000000, 0.00000000, 0.00000000, 0.00000000
1, 0.2300, 92, 0.91516256, 0.05298941, 0.41381082, -5.85828257, -8.83338833, -3.97922826, 0.00000000, 0.00000000, 0.00000000, -171.71366882, 65.10267639, -113.66928864, -0.48254168, -0.42737365, 0.72501802, 0.24259885, -0.00809908, 0.00768471, 0.00278783, 0.00000000, 0.00000000, 0.00000000, 0.00000000
1, 0.2325, 93, 0.91370821, 0.05249929, 0.41330951, -5.78491402, -9.31891727, -4.18988705, 0.00000000, 0.00000000, 0.00000000, -171.69854736, 65.12422180, -113.63667297, -0.48265731, -0.42745149, 0.72485024, 0.24273314, -0.00648642, 0.00823552, 0.00293565, 0.00000000, 0.00000000, 0.00000000, 0.00000000
1, 0.2350, 94, 0.91613209, 0.05103622, 0.41624382, -5.42929125, -9.52414513, -4.39572811, 0.00000000, 0.00000000, 0.00000000, -171.68122864, 65.14618683, -113.60264587, -0.48278052, -0.42752767, 0.72468019, 0.24286149, -0.00874913, 0.00977402, -0.00036126, 0.00000000, 0.00000000, 0.00000000, 0.00000000
1, 0.2375, 95, 0.91803807, 0.05345525, 0.41870674, -5.07534027, -9.73180771, -4.32251835, 0.00000000, 0.00000000, 0.00000000, -171.66322327, 65.16869354, -113.56880188, -0.48290995, -0.42759791, 0.72451049, 0.24298698, -0.01049006, 0.00743411, -0.00319606, 0.00000000, 0.00000000, 0.00000000, 0.00000000
1, 0.2400, 96, 0.91558605, 0.05489641, 0.41869435, -5.00332928, -9.72958565, -4.53092337, 0.00000000, 0.00000000, 0.00000000, -171.64385986, 65.19110107, -113.53369141, -0.48304108, -0.42767066, 0.72433919, 0.24310909, -0.00787389, 0.00608169, -0.00355572, 0.00000000, 0.00000000, 0.00000000, 0.00000000
1, 0.2425, 97, 0.91359872, 0.05681098, 0.42063630, -4.71952343, -10.00671387, -4.52868128, 0.00000000, 0.00000000, 0.00000000, -171.62355042, 65.21421814, -113.49831390, -0.48317912, -0.42773882, 0.72416639, 0.24322928, -0.00571734, 0.00426101, -0.00588134, 0.00000000, 0.00000000, 0.00000000, 0.00000000
1, 0.2725, 98, 0.90315962, 0.07858321, 0.42066345, -3.16238332, -11.67637444, -3.81936955, 0.00000000, 0.00000000, 0.00000000, -171.33467102, 65.52583313, -113.06027985, -0.48517209, -0.42833504, 0.72201538, 0.24460354, 0.00698835, -0.01616582, -0.01110920, 0.00000000, 0.00000000, 0.00000000, 0.00000000
1, 0.2750, 99, 0.90462440, 0.08054709, 0.41873711, -3.23397636, -11.67798901, -3.68072724, 0.00000000, 0.00000000, 0.00000000, -171.30484009, 65.55049133, -113.01850128, -0.48534018, -0.42839640, 0.72183365, 0.24469939, 0.00570178, -0.01797565, -0.00960279, 0.00000000, 0.00000000, 0.00000000, 0.00000000
1, 0.2775, 100, 0.90318882, 0.08007159, 0.41628793, -3.30598736, -11.68021202, -3.47232270, 0.00000000, 0.00000000, 0.00000000, -171.28448486, 65.57805634, -112.98707581, -0.48551169, -0.42842370, 0.72165984, 0.24482381, 0.00733638, -0.01742118, -0.00760845, 0.00000000, 0.00000000, 0.00000000, 0.00000000
1, 0.2800, 101, 0.90321130, 0.07862340, 0.41530663, -3.23764753, -11.26356697, -3.26022005, 0.00000000, 0.00000000, 0.00000000, -171.26541138, 65.60463715, -112.95725250, -0.48567617, -0.42844915, 0.72149277, 0.24494553, 0.00750566, -0.01590117, -0.00706589, 0.00000000, 0.00000000, 0.00000000, 0.00000000
1, 0.2825, 102, 0.90324050, 0.08011178, 0.41093111, -3.23925924, -10.98606777, -3.11940694, 0.00000000, 0.00000000, 0.00000000, -171.24731445, 65.63060760, -112.92847443, -0.48583540, -0.42847383, 0.72132987, 0.24506612, 0.00766355, -0.01732329, -0.00311795, 0.00000000, 0.00000000, 0.00000000, 0.00000000
1, 0.2850, 103, 0.90277731, 0.08159364, 0.40703863, -3.24093080, -10.98850250, -2.84035683, 0.00000000, 0.00000000, 0.00000000, -171.23066711, 65.65667725, -112.90130615, -0.48599321, -0.42849416, 0.72116947, 0.24518974, 0.00831437, -0.01874987, 0.00034657, 0.00000000, 0.00000000, 0.00000000, 0.00000000
1, 0.2875, 104, 0.90382844, 0.08214665, 0.39877024, -3.38489318, -10.71301556, -2.56178427, 0.00000000, 0.00000000, 0.00000000, -171.21607971, 65.68214417, -112.87602234, -0.48614383, -0.42851302, 0.72101384, 0.24531598, 0.00744635, -0.01926118, 0.00819832, 0.00000000, 0.00000000, 0.00000000, 0.00000000
1, 0.2900, 105, 0.90683579, 0.07685262, 0.39535812, -3.17509890, -10.57551098, -2.20968008, 0.00000000, 0.00000000, 0.00000000, -171.20300293, 65.70744324, -112.85295105, -0.48629227, -0.42852479, 0.72086400, 0.24544133, 0.00462079, -0.01393566, 0.01119867, 0.00000000, 0.00000000, 0.00000000, 0.00000000
1, 0.2925, 106, 0.90541083, 0.07149989, 0.39629337, -2.96502018, -10.08778381, -2.06525326, 0.00000000, 0.00000000, 0.00000000, -171.19053650, 65.73157501, -112.83115387, -0.48643425, -0.42853472, 0.72072178, 0.24556036, 0.00621897, -0.00855336, 0.00987032, 0.00000000, 0.00000000, 0.00000000, 0.00000000
1, 0.2950, 107, 0.90587443, 0.07050685, 0.39970130, -2.75558376, -9.67095566, -1.78162336, 0.00000000, 0.00000000, 0.00000000, -171.17944336, 65.75477600, -112.81143188, -0.48657009, -0.42854017, 0.72058773, 0.24567521, 0.00592166, -0.00753828, 0.00608525, 0.00000000, 0.00000000, 0.00000000, 0.00000000
1, 0.2975, 108, 0.90982848, 0.07056998, 0.39437604, -2.40527439, -9.32422924, -1.35702538, 0.00000000, 0.00000000, 0.00000000, -171.17007446, 65.77729797, -112.79456329, -0.48670140, -0.42853701, 0.72046316, 0.24578576, 0.00212896, -0.00759004, 0.01104620, 0.00000000, 0.00000000, 0.00000000, 0.00000000
1, 0.3000, 109, 0.90791589, 0.07205421, 0.38901079, -2.26414752, -9.18407822, -1.35461617, 0.00000000, 0.00000000, 0.00000000, -171.16043091, 65.79946899, -112.77778625, -0.48683187, -0.42853311, 0.72034079, 0.24589282, 0.00420028, -0.00906032, 0.01605207, 0.00000000, 0.00000000, 0.00000000, 0.00000000
1, 0.3025, 110, 0.91384029, 0.07263225, 0.38126886, -2.40969181, -8.49112415, -1.00434852, 0.00000000, 0.00000000, 0.00000000, -171.15367126, 65.82006073, -112.76374817, -0.48694819, -0.42852896, 0.72022825, 0.24599941, -0.00157684, -0.00964090, 0.02346272, 0.00000000, 0.00000000, 0.00000000, 0.00000000
1, 0.3050, 111, 0.91491181, 0.06245315, 0.38073841, -2.19964361, -8.14336491, -0.79080313, 0.00000000, 0.00000000, 0.00000000, -171.14784241, 65.83987427, -112.75133514, -0.48705983, -0.42852107, 0.72012258, 0.24610171, -0.00250679, 0.00053083, 0.02367500, 0.00000000, 0.00000000, 0.00000000, 0.00000000
1, 0.3075, 112, 0.91638172, 0.05855851, 0.38365260, -1.99207258, -7.65929222, -0.22780135, 0.00000000, 0.00000000, 0.00000000, -171.14500427, 65.85869598, -112.74276733, -0.48716277, -0.42850468, 0.72002840, 0.24620219, -0.00384229, 0.00439937, 0.02046141, 0.00000000, 0.00000000, 0.00000000, 0.00000000
1, 0.3100, 113, 0.91638172, 0.05855851, 0.38365260, -1.99207258, -7.65929222, -0.22780135, 0.00000000, 0.00000000, 0.00000000, -171.14213562, 65.87751770, -112.73419189, -0.48726562, -0.42848822, 0.71993411, 0.24630263, -0.00370800, 0.00437329, 0.02016184, 0.00000000, 0.00000000, 0.00000000, 0.00000000
1, 0.3125, 114, 0.92024612, 0.06441440, 0.38225254, -1.28958809, -7.03308392, 0.34202257, 0.00000000, 0.00000000, 0.00000000, -171.14120483, 65.89501953, -112.72962952, -0.48736218, -0.42845878, 0.71985561, 0.24639226, -0.00744760, -0.00151891, 0.02128539, 0.00000000, 0.00000000, 0.00000000, 0.00000000
1, 0.3150, 115, 0.92024612, 0.06441440, 0.38225254, -1.28958809, -7.03308392, 0.34202257, 0.00000000, 0.00000000, 0.00000000, -171.14027405, 65.91252899, -112.72507477, -0.48745874, -0.42842931, 0.71977711, 0.24648190, -0.00732285, -0.00155526, 0.02100882, 0.00000000, 0.00000000, 0.00000000, 0.00000000
1, 0.3175, 116, 0.92288762, 0.05237268, 0.37247145, -0.87201351, -5.43173695, 0.77329975, 0.00000000, 0.00000000, 0.00000000, -171.14202881, 65.92624664, -112.72461700, -0.48753172, -0.42839724, 0.71972185, 0.24655458, -0.00986665, 0.01044036, 0.03057587, 0.00000000, 0.00000000, 0.00000000, 0.00000000
1, 0.3200, 117, 0.92288762, 0.05237268, 0.37247145, -0.87201351, -5.43173695, 0.77329975, 0.00000000, 0.00000000, 0.00000000, -171.14381409, 65.93996429, -112.72416687, -0.48760471, -0.42836517, 0.71966660, 0.24662727, -0.00976902, 0.01039422, 0.03036190, 0.00000000, 0.00000000, 0.00000000, 0.00000000
1, 0.3225, 118, 0.92724961, 0.05237657, 0.37542889, -0.23822664, -4.94284868, 1.06254697, 0.00000000, 0.00000000, 0.00000000, -171.14602661, 65.95258331, -112.72593689, -0.48767436, -0.42832443, 0.71962261, 0.24668851, -0.01404124, 0.01034385, 0.02720812, 0.00000000, 0.00000000, 0.00000000, 0.00000000
1, 0.3250, 119, 0.92724961, 0.05237657, 0.37542889, -0.23822664, -4.94284868, 1.06254697, 0.00000000, 0.00000000, 0.00000000, -171.15747070, 65.98475647, -112.73927307, -0.48784921, -0.42818990, 0.71953106, 0.24684343, -0.01381254, 0.01018461, 0.02671409, 0.00000000, 0.00000000, 0.00000000, 0.00000000
1, 0.3275, 120, 0.93121058, 0.04902528, 0.37252143, 0.39600787, -4.31338453, 1.21291351, 0.00000000, 0.00000000, 0.00000000, -171.15946960, 65.99586487, -112.74255371, -0.48791409, -0.42814344, 0.71949863, 0.24689041, -0.01769466, 0.01349454, 0.02944855, 0.00000000, 0.00000000, 0.00000000, 0.00000000
1, 0.3300, 121, 0.93021977, 0.04754212, 0.37542811, 0.67745548, -3.89433169, 1.28813863, 0.00000000, 0.00000000, 0.00000000, -171.16156006, 66.00597382, -112.74670410, -0.48797458, -0.42809504, 0.71947283, 0.24692987, -0.01663208, 0.01493820, 0.02638480, 0.00000000, 0.00000000, 0.00000000, 0.00000000
1, 0.3325, 122, 0.93361169, 0.04852157, 0.37692156, 0.67645556, -3.68590331, 1.35886693, 0.00000000, 0.00000000, 0.00000000, -171.16424561, 66.01561737, -112.75148010, -0.48803142, -0.42804664, 0.71944994, 0.24696814, -0.01995558, 0.01391645, 0.02474264, 0.00000000, 0.00000000, 0.00000000, 0.00000000
1, 0.3350, 123, 0.93749666, 0.05048518, 0.37696290, 0.88753372, -3.40660548, 1.43256557, 0.00000000, 0.00000000, 0.00000000, -171.16703796, 66.02457428, -112.75696564, -0.48808545, -0.42799637, 0.71943182, 0.24700128, -0.02377701, 0.01191126, 0.02456301, 0.00000000, 0.00000000, 0.00000000, 0.00000000
1, 0.3375, 124, 0.93702328, 0.05098209, 0.37501347, 0.95829123, -3.40620875, 1.43344820, 0.00000000, 0.00000000, 0.00000000, -171.16966248, 66.03352356, -112.76246643, -0.48814014, -0.42794532, 0.71941411, 0.24703330, -0.02324015, 0.01137399, 0.02637411, 0.00000000, 0.00000000, 0.00000000, 0.00000000
1, 0.3400, 125, 0.93899083, 0.04758644, 0.37647310, 1.45259309, -3.19500351, 1.51035452, 0.00000000, 0.00000000, 0.00000000, -171.17167664, 66.04200745, -112.76863098, -0.48819572, -0.42788893, 0.71940202, 0.24705641, -0.02514756, 0.01473486, 0.02478311, 0.00000000, 0.00000000, 0.00000000, 0.00000000
1, 0.3425, 126, 0.93704611, 0.05002272, 0.37354761, 1.80496204, -2.98520041, 1.65525866, 0.00000000, 0.00000000, 0.00000000, -171.17379761, 66.05003357, -112.77587891, -0.48825049, -0.42782763, 0.71939540, 0.24707358, -0.02314598, 0.01226420, 0.02758468, 0.00000000, 0.00000000, 0.00000000, 0.00000000
1, 0.3450, 127, 0.93901104, 0.04955633, 0.37258700, 2.29954743, -2.42377329, 1.52448785, 0.00000000, 0.00000000, 0.00000000, -171.17442322, 66.05659485, -112.78287506, -0.48830175, -0.42776614, 0.71939623, 0.24707635, -0.02506448, 0.01271001, 0.02844242, 0.00000000, 0.00000000, 0.00000000, 0.00000000
1, 0.3475, 128, 0.94621992, 0.04951532, 0.38384682, 2.58260679, -2.28221989, 1.45889997, 0.00000000, 0.00000000, 0.00000000, -171.17411804, 66.06278229, -112.78961945, -0.48835376, -0.42770338, 0.71939945, 0.24707262, -0.03222948, 0.01273798, 0.01708466, 0.00000000, 0.00000000, 0.00000000, 0.00000000
1, 0.3500, 129, 0.94375134, 0.05387478, 0.38287511, 2.08788705, -2.49403405, 1.45175588, 0.00000000, 0.00000000, 0.00000000, -171.17483521, 66.06949615, -112.79609680, -0.48840454, -0.42764491, 0.71939766, 0.24707860, -0.02971339, 0.00835712, 0.01795122, 0.00000000, 0.00000000, 0.00000000, 0.00000000
1, 0.3525, 130, 0.93735605, 0.05721538, 0.38527584, 2.08963323, -3.12114549, 1.44885743, 0.00000000, 0.00000000, 0.00000000, -171.17498779, 66.07775879, -112.80197144, -0.48846522, -0.42758307, 0.71938920, 0.24709035, -0.02325958, 0.00499527, 0.01542038, 0.00000000, 0.00000000, 0.00000000, 0.00000000
1, 0.3550, 131, 0.93680680, 0.05667619, 0.39208725, 1.59433162, -3.12392235, 1.44267941, 0.00000000, 0.00000000, 0.00000000, -171.17631531, 66.08602905, -112.80780792, -0.48852134, -0.42752659, 0.71937793, 0.24710985, -0.02265179, 0.00550480, 0.00848001, 0.00000000, 0.00000000, 0.00000000, 0.00000000
1, 0.3575, 132, 0.93534988, 0.05276434, 0.39497775, 1.16917527, -3.05723190, 1.50746834, 0.00000000, 0.00000000, 0.00000000, -171.17916870, 66.09416199, -112.81410217, -0.48857209, -0.42747399, 0.71936572, 0.24713607, -0.02113742, 0.00937697, 0.00546431, 0.00000000, 0.00000000, 0.00000000, 0.00000000
1, 0.3600, 133, 0.93737882, 0.04990501, 0.38962206, 0.74530256, -2.84874845, 1.29385185, 0.00000000, 0.00000000, 0.00000000, -171.18203735, 66.10168457, -112.81928253, -0.48861682, -0.42743045, 0.71935147, 0.24716476, -0.02311295, 0.01219770, 0.01070443, 0.00000000, 0.00000000, 0.00000000, 0.00000000
1, 0.3625, 134, 0.94034755, 0.04946629, 0.38574740, 0.74391460, -2.50096202, 1.36522436, 0.00000000, 0.00000000, 0.00000000, -171.18562317, 66.10839081, -112.82524109, -0.48865566, -0.42738760, 0.71934152, 0.24719095, -0.02603442, 0.01259502, 0.01447723, 0.00000000, 0.00000000, 0.00000000, 0.00000000
1, 0.3650, 135, 0.94326746, 0.05289792, 0.38335326, 0.81438839, -2.85078692, 1.57378411, 0.00000000, 0.00000000, 0.00000000, -171.18989563, 66.11604309, -112.83213806, -0.48869950, -0.42733884, 0.71933019, 0.24722153, -0.02890027, 0.00911481, 0.01675540, 0.00000000, 0.00000000, 0.00000000, 0.00000000
1, 0.3675, 136, 0.93794721, 0.05094763, 0.38037819, 1.09700024, -2.84980893, 1.64707708, 0.00000000, 0.00000000, 0.00000000, -171.19387817, 66.12372589, -112.83950043, -0.48874557, -0.42728594, 0.71932107, 0.24724844, -0.02352572, 0.01101858, 0.01961387, 0.00000000, 0.00000000, 0.00000000, 0.00000000
1, 0.3700, 137, 0.93405753, 0.04898037, 0.38082382, 1.52235031, -2.98617840, 1.58196568, 0.00000000, 0.00000000, 0.00000000, -171.19633484, 66.13170624, -112.84633636, -0.48879808, -0.42722878, 0.71931219, 0.24726926, -0.01957971, 0.01294927, 0.01904497, 0.00000000, 0.00000000, 0.00000000, 0.00000000
1, 0.3725, 138, 0.93305880, 0.04944519, 0.38276631, 1.80540979, -2.84462452, 1.51637757, 0.00000000, 0.00000000, 0.00000000, -171.19781494, 66.13932037, -112.85289001, -0.48885140, -0.42717040, 0.71930569, 0.24728361, -0.01852721, 0.01245549, 0.01698399, 0.00000000, 0.00000000, 0.00000000, 0.00000000
1, 0.3750, 139, 0.93101215, 0.05375636, 0.38861635, 1.80582762, -2.84401584, 1.44661534, 0.00000000, 0.00000000, 0.00000000, -171.20886230, 66.15807343, -112.87065887, -0.48895878, -0.42704797, 0.71927965, 0.24735850, -0.01634818, 0.00802146, 0.01084980, 0.00000000, 0.00000000, 0.00000000, 0.00000000
1, 0.3775, 140, 0.93001777, 0.05373601, 0.39055637, 1.59516740, -3.12270474, 1.30315447, 0.00000000, 0.00000000, 0.00000000, -171.20944214, 66.16627502, -112.87567139, -0.48901561, -0.42699367, 0.71926707, 0.24737646, -0.01529593, 0.00801765, 0.00878087, 0.00000000, 0.00000000, 0.00000000, 0.00000000
1, 0.3800, 141, 0.92807090, 0.05323937, 0.39053816, 1.09967160, -3.05580235, 1.29729855, 0.00000000, 0.00000000, 0.00000000, -171.21131897, 66.17431641, -112.88071442, -0.48906681, -0.42694509, 0.71925253, 0.24740151, -0.01329238, 0.00848165, 0.00867418, 0.00000000, 0.00000000, 0.00000000, 0.00000000
1, 0.3825, 142, 0.92612112, 0.05518318, 0.38858423, 0.95718682, -2.70820022, 1.29714370, 0.00000000, 0.00000000, 0.00000000, -171.21385193, 66.18152618, -112.88610077, -0.48911116, -0.42689985, 0.71924084, 0.24742553, -0.01129180, 0.00650268, 0.01051751, 0.00000000, 0.00000000, 0.00000000, 0.00000000
1, 0.3850, 143, 0.92715603, 0.05279231, 0.38468403, 0.74536228, -2.56881452, 1.15561509, 0.00000000, 0.00000000, 0.00000000, -171.21621704, 66.18830872, -112.89073944, -0.48915219, -0.42685992, 0.71922827, 0.24745008, -0.01227891, 0.00886043, 0.01431316, 0.00000000, 0.00000000, 0.00000000, 0.00000000
1, 0.3875, 144, 0.92668265, 0.05328922, 0.38273457, 0.81528389, -2.56963539, 1.29602265, 0.00000000, 0.00000000, 0.00000000, -171.21922302, 66.19515228, -112.89623260, -0.48919311, -0.42681703, 0.71921730, 0.24747506, -0.01175732, 0.00832597, 0.01615790, 0.00000000, 0.00000000, 0.00000000, 0.00000000
1, 0.3900, 145, 0.92373705, 0.05325740, 0.38465884, 0.74513841, -2.63910270, 1.22505546, 0.00000000, 0.00000000, 0.00000000, -171.22193909, 66.20213318, -112.90124512, -0.48923483, -0.42677560, 0.71920455, 0.24750102, -0.00876254, 0.00832185, 0.01412622, 0.00000000, 0.00000000, 0.00000000, 0.00000000
1, 0.3925, 146, 0.92325902, 0.05375066, 0.38319641, 0.74407876, -2.71060801, 1.43402088, 0.00000000, 0.00000000, 0.00000000, -171.22576904, 66.20937347, -112.90745544, -0.48927653, -0.42673054, 0.71919298, 0.24752988, -0.00823355, 0.00778431, 0.01547844, 0.00000000, 0.00000000, 0.00000000, 0.00000000
1, 0.3950, 147, 0.92030978, 0.05518164, 0.38415402, 0.95673907, -2.84877586, 1.43602455, 0.00000000, 0.00000000, 0.00000000, -171.22897339, 66.21696472, -112.91356659, -0.48932239, -0.42668241, 0.71918112, 0.24755672, -0.00523084, 0.00631264, 0.01440466, 0.00000000, 0.00000000, 0.00000000, 0.00000000
1, 0.3975, 148, 0.91689163, 0.05662437, 0.38315979, 0.81522417, -2.84956932, 1.43425941, 0.00000000, 0.00000000, 0.00000000, -171.23249817, 66.22454071, -112.91965485, -0.48936695, -0.42663583, 0.71916848, 0.24758576, -0.00175935, 0.00482684, 0.01528287, 0.00000000, 0.00000000, 0.00000000, 0.00000000
1, 0.4000, 149, 0.91690028, 0.05565403, 0.38315490, 0.53222448, -2.71118903, 1.36161053, 0.00000000, 0.00000000, 0.00000000, -171.23646545, 66.23177338, -112.92543793, -0.48940706, -0.42659414, 0.71915507, 0.24761719, -0.00171715, 0.00575204, 0.01517809, 0.00000000, 0.00000000, 0.00000000, 0.00000000
1, 0.4025, 150, 0.91544700, 0.05663038, 0.38120002, 0.46110892, -2.43226051, 1.29225385, 0.00000000, 0.00000000, 0.00000000, -171.24046326, 66.23826599, -112.93106842, -0.48944253, -0.42655581, 0.71914363, 0.24764639, -0.00021815, 0.00473205, 0.01703465, 0.00000000, 0.00000000, 0.00000000, 0.00000000
1, 0.4050, 151, 0.91595685, 0.05469624, 0.38070717, 0.32001206, -2.43244505, 1.22072613, 0.00000000, 0.00000000, 0.00000000, -171.24441528, 66.24474335, -112.93625641, -0.48947710, -0.42652008, 0.71913075, 0.24767704, -0.00068247, 0.00662302, 0.01742944, 0.00000000, 0.00000000, 0.00000000, 0.00000000
1, 0.4075, 152, 0.91645879, 0.05471007, 0.37925017, 0.17791529, -2.22420144, 1.21992719, 0.00000000, 0.00000000, 0.00000000, -171.24890137, 66.25070190, -112.94164276, -0.48950702, -0.42648697, 0.71911925, 0.24770795, -0.00114256, 0.00656356, 0.01879716, 0.00000000, 0.00000000, 0.00000000, 0.00000000
1, 0.4100, 153, 0.91550016, 0.05227485, 0.37971705, 0.10879956, -2.36212945, 1.00911307, 0.00000000, 0.00000000, 0.00000000, -171.25224304, 66.25694275, -112.94559479, -0.48953962, -0.42645723, 0.71910399, 0.24773900, -0.00014007, 0.00896039, 0.01823563, 0.00000000, 0.00000000, 0.00000000, 0.00000000
1, 0.4125, 154, 0.91746145, 0.05327127, 0.37778977, -0.03371512, -2.15449452, 1.07807660, 0.00000000, 0.00000000, 0.00000000, -171.25653076, 66.26265717, -112.95018768, -0.48956731, -0.42642906, 0.71909088, 0.24777111, -0.00206119, 0.00792029, 0.02007693, 0.00000000, 0.00000000, 0.00000000, 0.00000000
1, 0.4150, 155, 0.91896570, 0.05135748, 0.37535691, -0.03452104, -2.01574492, 1.14848328, 0.00000000, 0.00000000, 0.00000000, -171.26132202, 66.26808929, -112.95533752, -0.48959240, -0.42640048, 0.71907985, 0.24780267, -0.00352728, 0.00978759, 0.02242941, 0.00000000, 0.00000000, 0.00000000, 0.00000000
1, 0.4175, 156, 0.92091650, 0.05088014, 0.37585726, 0.10702357, -1.87498474, 1.08112991, 0.00000000, 0.00000000, 0.00000000, -171.26551819, 66.27312469, -112.96020508, -0.48961696, -0.42637226, 0.71907049, 0.24782999, -0.00544274, 0.01022356, 0.02185384, 0.00000000, 0.00000000, 0.00000000, 0.00000000
1, 0.4200, 157, 0.92238897, 0.05040723, 0.37537965, 0.31968373, -2.01315284, 1.08313346, 0.00000000, 0.00000000, 0.00000000, -171.26907349, 66.27851105, -112.96495819, -0.48964566, -0.42634097, 0.71906078, 0.24785528, -0.00687736, 0.01065874, 0.02225021, 0.00000000, 0.00000000, 0.00000000, 0.00000000
1, 0.4225, 158, 0.92287070, 0.04845116, 0.37780872, 0.39063513, -2.08243537, 1.08369398, 0.00000000, 0.00000000, 0.00000000, -171.27239990, 66.28404999, -112.96965027, -0.48967609, -0.42630854, 0.71905071, 0.24788009, -0.00732017, 0.01257833, 0.01973692, 0.00000000, 0.00000000, 0.00000000, 0.00000000
1, 0.4250, 159, 0.91992211, 0.05085978, 0.37779728, 0.46097460, -2.08264756, 1.15433919, 0.00000000, 0.00000000, 0.00000000, -171.29464722, 66.31192780, -112.99665070, -0.48981538, -0.42614815, 0.71900100, 0.24802481, -0.00417602, 0.00994789, 0.01933197, 0.00000000, 0.00000000, 0.00000000, 0.00000000
1, 0.4275, 160, 0.92287242, 0.05089526, 0.37538603, 0.46161634, -2.01175070, 1.01513612, 0.00000000, 0.00000000, 0.00000000, -171.29748535, 66.31727600, -113.00100708, -0.48984575, -0.42611641, 0.71899146, 0.24804711, -0.00708884, 0.00987983, 0.02166155, 0.00000000, 0.00000000, 0.00000000, 0.00000000
1, 0.4300, 161, 0.92580390, 0.05091612, 0.37492275, 0.60316104, -1.87099040, 0.94778299, 0.00000000, 0.00000000, 0.00000000, -171.29969788, 66.32226562, -113.00507355, -0.48987558, -0.42608497, 0.71898353, 0.24806517, -0.00998533, 0.00983158, 0.02204854, 0.00000000, 0.00000000, 0.00000000, 0.00000000
1, 0.4325, 162, 0.93457383, 0.04949398, 0.37742132, 0.53279161, -2.01074529, 0.94625634, 0.00000000, 0.00000000, 0.00000000, -171.30197144, 66.32757568, -113.00900269, -0.48990694, -0.42605355, 0.71897370, 0.24808562, -0.01871807, 0.01122511, 0.01946822, 0.00000000, 0.00000000, 0.00000000, 0.00000000
1, 0.4350, 163, 0.93938321, 0.05191195, 0.38234285, 0.10518787, -1.66777396, 1.29138350, 0.00000000, 0.00000000, 0.00000000, -171.30754089, 66.33218384, -113.01538086, -0.48992708, -0.42602313, 0.71896845, 0.24811327, -0.02349514, 0.00875734, 0.01447967, 0.00000000, 0.00000000, 0.00000000, 0.00000000
1, 0.4375, 164, 0.93253410, 0.05674173, 0.37987712, -0.32380390, -0.97701579, 1.70788312, 0.00000000, 0.00000000, 0.00000000, -171.31713867, 66.33525085, -113.02497101, -0.48993015, -0.42599452, 0.71897215, 0.24814568, -0.01662457, 0.00385372, 0.01690725, 0.00000000, 0.00000000, 0.00000000, 0.00000000
1, 0.4400, 165, 0.93166542, 0.05535357, 0.37012222, -0.11288984, -0.48807201, 1.71278512, 0.00000000, 0.00000000, 0.00000000, -171.32667542, 66.33710480, -113.03507233, -0.48992750, -0.42596620, 0.71898228, 0.24817030, -0.01574278, 0.00517143, 0.02664302, 0.00000000, 0.00000000, 0.00000000, 0.00000000
1, 0.4425, 166, 0.93999237, 0.05103219, 0.37065428, 0.38408336, -0.48286012, 1.43991351, 0.00000000, 0.00000000, 0.00000000, -171.33343506, 66.33883667, -113.04350281, -0.48993084, -0.42593688, 0.71899259, 0.24818416, -0.02405769, 0.00944190, 0.02609063, 0.00000000, 0.00000000, 0.00000000, 0.00000000
1, 0.4450, 167, 0.93990493, 0.05340686, 0.37748429, 0.59677339, -0.48106131, 1.37279856, 0.00000000, 0.00000000, 0.00000000, -171.33926392, 66.34053802, -113.05149841, -0.48993650, -0.42590636, 0.71900344, 0.24819395, -0.02395833, 0.00702267, 0.01923976, 0.00000000, 0.00000000, 0.00000000, 0.00000000
1, 0.4475, 168, 0.93405461, 0.05142082, 0.37888810, 0.45487052, -0.34249648, 1.37167752, 0.00000000, 0.00000000, 0.00000000, -171.34556580, 66.34191132, -113.05962372, -0.48993868, -0.42587814, 0.71901494, 0.24820466, -0.01809842, 0.00896178, 0.01782105, 0.00000000, 0.00000000, 0.00000000, 0.00000000
1, 0.4500, 169, 0.93363184, 0.05049146, 0.37303549, 0.52646369, -0.34088221, 1.23303521, 0.00000000, 0.00000000, 0.00000000, -171.35090637, 66.34321594, -113.06689453, -0.48994222, -0.42585132, 0.71902561, 0.24821275, -0.01766652, 0.00985096, 0.02365864, 0.00000000, 0.00000000, 0.00000000, 0.00000000
1, 0.4575, 170, 0.93356675, 0.05776895, 0.37307215, 0.88366836, -0.96357560, 0.95549983, 0.00000000, 0.00000000, 0.00000000, -171.36036682, 66.34961700, -113.08386993, -0.48998150, -0.42576548, 0.71904463, 0.24822721, -0.01755661, 0.00249259, 0.02353057, 0.00000000, 0.00000000, 0.00000000, 0.00000000
1, 0.4600, 171, 0.92965853, 0.05627589, 0.37498119, 0.81510478, -1.45050824, 0.81283802, 0.00000000, 0.00000000, 0.00000000, -171.36167908, 66.35351562, -113.08752441, -0.49000743, -0.42573616, 0.71904111, 0.24823658, -0.01362110, 0.00396726, 0.02156142, 0.00000000, 0.00000000, 0.00000000, 0.00000000
1, 0.4625, 172, 0.92916244, 0.05773217, 0.37449759, 0.81588084, -1.72922480, 0.81154984, 0.00000000, 0.00000000, 0.00000000, -171.36274719, 66.35810852, -113.09089661, -0.49003774, -0.42570534, 0.71903455, 0.24824852, -0.01309282, 0.00249266, 0.02197385, 0.00000000, 0.00000000, 0.00000000, 0.00000000
1, 0.4650, 173, 0.92378658, 0.05671568, 0.37639722, 0.88780236, -2.14690256, 0.81050014, 0.00000000, 0.00000000, 0.00000000, -171.36325073, 66.36370850, -113.09388733, -0.49007529, -0.42567152, 0.71902394, 0.24826320, -0.00767774, 0.00349214, 0.01998604, 0.00000000, 0.00000000, 0.00000000, 0.00000000
1, 0.4675, 174, 0.92427468, 0.05720736, 0.37591666, 0.81904483, -2.56415629, 0.66816032, 0.00000000, 0.00000000, 0.00000000, -171.36277771, 66.37030792, -113.09559631, -0.49011952, -0.42563838, 0.71900713, 0.24828130, -0.00811970, 0.00298793, 0.02036184, 0.00000000, 0.00000000, 0.00000000, 0.00000000
1, 0.4700, 175, 0.92181224, 0.05717475, 0.37833184, 0.89154834, -3.19087148, 0.66614449, 0.00000000, 0.00000000, 0.00000000, -171.36157227, 66.37842560, -113.09671783, -0.49017426, -0.42560109, 0.71898401, 0.24830407, -0.00560051, 0.00300933, 0.01781672, 0.00000000, 0.00000000, 0.00000000, 0.00000000
1, 0.4725, 176, 0.92130131, 0.05764244, 0.38027826, 0.68252981, -3.60709167, 0.31275222, 0.00000000, 0.00000000, 0.00000000, -171.35853577, 66.38748169, -113.09527588, -0.49023551, -0.42556933, 0.71895206, 0.24833021, -0.00502622, 0.00254091, 0.01572433, 0.00000000, 0.00000000, 0.00000000, 0.00000000
1, 0.4750, 177, 0.92126477, 0.05907967, 0.38272053, 0.61393642, -4.23399210, 0.23920874, 0.00000000, 0.00000000, 0.00000000, -171.35301208, 66.40898895, -113.09169006, -0.49037462, -0.42550182, 0.71887171, 0.24840371, -0.00483942, 0.00109012, 0.01293617, 0.00000000, 0.00000000, 0.00000000, 0.00000000
1, 0.4775, 178, 0.92223138, 0.05956691, 0.38321784, 0.19219790, -4.79197884, 0.02204955, 0.00000000, 0.00000000, 0.00000000, -171.34852600, 66.42082977, -113.08731079, -0.49045146, -0.42547345, 0.71882164, 0.24844542, -0.00572330, 0.00060535, 0.01224658, 0.00000000, 0.00000000, 0.00000000, 0.00000000
1, 0.4800, 179, 0.91976196, 0.06294873, 0.38321525, 0.05310086, -5.20902014, -0.19093527, 0.00000000, 0.00000000, 0.00000000, -171.34281921, 66.43363953, -113.08123016, -0.49053469, -0.42544764, 0.71876442, 0.24849090, -0.00316447, -0.00276792, 0.01204076, 0.00000000, 0.00000000, 0.00000000, 0.00000000
1, 0.4825, 180, 0.91829741, 0.06782467, 0.37884498, -0.29968613, -5.41943169, -0.26607671, 0.00000000, 0.00000000, 0.00000000, -171.33738708, 66.44692993, -113.07447815, -0.49061835, -0.42542565, 0.71870238, 0.24854305, -0.00160724, -0.00763841, 0.01619500, 0.00000000, 0.00000000, 0.00000000, 0.00000000
1, 0.4850, 181, 0.91885215, 0.06299415, 0.37638956, -0.36841378, -5.69671822, -0.47753483, 0.00000000, 0.00000000, 0.00000000, -171.33067322, 66.46083069, -113.06615448, -0.49070683, -0.42540619, 0.71863496, 0.24859659, -0.00206506, -0.00279511, 0.01842359, 0.00000000, 0.00000000, 0.00000000, 0.00000000
1, 0.4875, 182, 0.91839290, 0.05715102, 0.37879118, -0.36638409, -5.97360849, -0.68811041, 0.00000000, 0.00000000, 0.00000000, -171.32250977, 66.47532654, -113.05625916, -0.49080083, -0.42538851, 0.71856266, 0.24865042, -0.00150460, 0.00306920, 0.01578406, 0.00000000, 0.00000000, 0.00000000, 0.00000000
1, 0.4900, 183, 0.91596049, 0.05323344, 0.38167381, -0.36457822, -6.32078600, -0.82924557, 0.00000000, 0.00000000, 0.00000000, -171.31323242, 66.49065399, -113.04515076, -0.49090102, -0.42537111, 0.71848530, 0.24870591, 0.00103438, 0.00701371, 0.01264939, 0.00000000, 0.00000000, 0.00000000, 0.00000000
1, 0.4925, 184, 0.91642988, 0.05371051, 0.38314116, -0.50509310, -6.53000832, -0.90173942, 0.00000000, 0.00000000, 0.00000000, -171.30369568, 66.50643158, -113.03336334, -0.49100360, -0.42535523, 0.71840423, 0.24876477, 0.00067478, 0.00656405, 0.01092205, 0.00000000, 0.00000000, 0.00000000, 0.00000000
1, 0.4950, 185, 0.91692311, 0.05469467, 0.38168904, -0.64541399, -6.80890989, -0.97455513, 0.00000000, 0.00000000, 0.00000000, -171.29383850, 66.52288818, -113.02086639, -0.49110961, -0.42534047, 0.71831876, 0.24882764, 0.00029618, 0.00560777, 0.01210347, 0.00000000, 0.00000000, 0.00000000, 0.00000000
1, 0.4975, 186, 0.91450644, 0.05323214, 0.38068801, -0.64399618, -7.01672888, -1.11504626, 0.00000000, 0.00000000, 0.00000000, -171.28297424, 66.53983307, -113.00727081, -0.49121958, -0.42532670, 0.71822965, 0.24889086, 0.00283051, 0.00710389, 0.01282534, 0.00000000, 0.00000000, 0.00000000, 0.00000000
1, 0.5000, 187, 0.91503841, 0.04936099, 0.37969843, -0.64235449, -7.15426159, -1.32497776, 0.00000000, 0.00000000, 0.00000000, -171.27078247, 66.55699921, -112.99221039, -0.49133298, -0.42531556, 0.71813720, 0.24895315, 0.00241774, 0.01101708, 0.01353011, 0.00000000, 0.00000000, 0.00000000, 0.00000000
1, 0.5025, 188, 0.91649020, 0.05278037, 0.37777942, -0.71366405, -6.80565357, -1.39401269, 0.00000000, 0.00000000, 0.00000000, -171.25865173, 66.57329559, -112.97705078, -0.49144056, -0.42530811, 0.71804744, 0.24901253, 0.00107908, 0.00764133, 0.01517851, 0.00000000, 0.00000000, 0.00000000, 0.00000000
1, 0.5050, 189, 0.91698271, 0.05278689, 0.37729642, -0.57053733, -7.08235884, -1.53306055, 0.00000000, 0.00000000, 0.00000000, -171.24511719, 66.59020996, -112.96073914, -0.49155453, -0.42529976, 0.71795416, 0.24907075, 0.00070387, 0.00768640, 0.01537952, 0.00000000, 0.00000000, 0.00000000, 0.00000000
1, 0.5075, 190, 0.91601074, 0.05131835, 0.37825516, -0.49872038, -7.01045609, -1.74114347, 0.00000000, 0.00000000, 0.00000000, -171.23027039, 66.60686493, -112.94319916, -0.49166912, -0.42529422, 0.71786010, 0.24912490, 0.00179130, 0.00921607, 0.01414138, 0.00000000, 0.00000000, 0.00000000, 0.00000000
1, 0.5100, 191, 0.91549289, 0.05520046, 0.37778378, -0.28641838, -6.86929941, -1.80761409, 0.00000000, 0.00000000, 0.00000000, -171.21458435, 66.62314606, -112.92534637, -0.49178389, -0.42528826, 0.71776807, 0.24917373, 0.00242198, 0.00540146, 0.01433844, 0.00000000, 0.00000000, 0.00000000, 0.00000000
1, 0.5125, 192, 0.91696137, 0.05570154, 0.37682408, -0.14445585, -6.72793055, -1.94472957, 0.00000000, 0.00000000, 0.00000000, -171.19787598, 66.63901520, -112.90674591, -0.49189848, -0.42528370, 0.71767706, 0.24921755, 0.00106335, 0.00497584, 0.01502896, 0.00000000, 0.00000000, 0.00000000, 0.00000000
1, 0.5150, 193, 0.91554278, 0.05279655, 0.37484968, -0.07325073, -6.58695841, -2.08272767, 0.00000000, 0.00000000, 0.00000000, -171.18029785, 66.65450287, -112.88741302, -0.49201226, -0.42528126, 0.71758664, 0.24925746, 0.00258905, 0.00796298, 0.01673970, 0.00000000, 0.00000000, 0.00000000, 0.00000000
1, 0.5175, 194, 0.91597849, 0.05862141, 0.37488294, -0.00288139, -6.44720316, -2.08120108, 0.00000000, 0.00000000, 0.00000000, -171.16265869, 66.66963196, -112.86817932, -0.49212450, -0.42527881, 0.71749812, 0.24929498, 0.00225794, 0.00222145, 0.01644811, 0.00000000, 0.00000000, 0.00000000, 0.00000000
1, 0.5200, 195, 0.91502029, 0.05667501, 0.37486526, -0.00285154, -6.30723572, -2.15031981, 0.00000000, 0.00000000, 0.00000000, -171.14472961, 66.68438721, -112.84864807, -0.49223489, -0.42527819, 0.71741045, 0.24933046, 0.00331813, 0.00425391, 0.01621309, 0.00000000, 0.00000000, 0.00000000, 0.00000000
1, 0.5225, 196, 0.91647971, 0.05765760, 0.37439501, -0.14333652, -6.37649059, -2.29193187, 0.00000000, 0.00000000, 0.00000000, -171.12622070, 66.69924927, -112.82812500, -0.49234581, -0.42528093, 0.71731991, 0.24936725, 0.00196135, 0.00336077, 0.01642818, 0.00000000, 0.00000000, 0.00000000, 0.00000000
1, 0.5250, 197, 0.91745168, 0.05912614, 0.37343624, -0.14450061, -5.95841599, -2.28999949, 0.00000000, 0.00000000, 0.00000000, -171.10728455, 66.72053528, -112.80761719, -0.49249598, -0.42526144, 0.71720684, 0.24942888, 0.00113624, 0.00196874, 0.01702961, 0.00000000, 0.00000000, 0.00000000, 0.00000000
1, 0.5275, 198, 0.91745168, 0.05912614, 0.37343624, -0.14450061, -5.95841599, -2.28999949, 0.00000000, 0.00000000, 0.00000000, -171.08912659, 66.73437500, -112.78746796, -0.49260038, -0.42526644, 0.71712083, 0.24946184, 0.00123167, 0.00205811, 0.01679114, 0.00000000, 0.00000000, 0.00000000, 0.00000000
1, 0.5300, 199, 0.91891032, 0.05913109, 0.37393510, -0.21536249, -5.46923256, -2.49791527, 0.00000000, 0.00000000, 0.00000000, -171.07038879, 66.74691010, -112.76647949, -0.49269754, -0.42527807, 0.71703768, 0.24948911, -0.00014055, 0.00214963, 0.01607359, 0.00000000, 0.00000000, 0.00000000, 0.00000000
1, 0.5325, 200, 0.91891032, 0.05913109, 0.37393510, -0.21536249, -5.46923256, -2.49791527, 0.00000000, 0.00000000, 0.00000000, -171.05162048, 66.75945282, -112.74546051, -0.49279469, -0.42528969, 0.71695453, 0.24951638, -0.00005418, 0.00224610, 0.01585490, 0.00000000, 0.00000000, 0.00000000, 0.00000000
1, 0.5350, 201, 0.92038894, 0.06061712, 0.37103236, -0.07337011, -5.18789673, -2.70414948, 0.00000000, 0.00000000, 0.00000000, -171.03153992, 66.77120972, -112.72342682, -0.49288988, -0.42530450, 0.71687323, 0.24953659, -0.00145185, 0.00086724, 0.01854986, 0.00000000, 0.00000000, 0.00000000, 0.00000000
1, 0.5375, 202, 0.92038894, 0.06061712, 0.37103236, -0.07337011, -5.18789673, -2.70414948, 0.00000000, 0.00000000, 0.00000000, -171.01144409, 66.78297424, -112.70134735, -0.49298507, -0.42531931, 0.71679193, 0.24955679, -0.00137085, 0.00097445, 0.01834199, 0.00000000, 0.00000000, 0.00000000, 0.00000000
1, 0.5400, 203, 0.92380750, 0.05966321, 0.37154207, 0.06742828, -4.62845278, -2.83933282, 0.00000000, 0.00000000, 0.00000000, -170.99070740, 66.79328918, -112.67896271, -0.49307355, -0.42533779, 0.71671617, 0.24956815, -0.00471848, 0.00204336, 0.01764638, 0.00000000, 0.00000000, 0.00000000, 0.00000000
1, 0.5425, 204, 0.92380750, 0.05966321, 0.37154207, 0.06742828, -4.62845278, -2.83933282, 0.00000000, 0.00000000, 0.00000000, -170.96994019, 66.80359650, -112.65656281, -0.49316201, -0.42535627, 0.71664041, 0.24957950, -0.00464761, 0.00215836, 0.01746056, 0.00000000, 0.00000000, 0.00000000, 0.00000000
1, 0.5450, 205, 0.92379409, 0.06062989, 0.37203395, 0.35174128, -4.48507309, -3.11420798, 0.00000000, 0.00000000, 0.00000000, -170.94700623, 66.81345367, -112.63257599, -0.49325231, -0.42537671, 0.71656513, 0.24958210, -0.00456643, 0.00132256, 0.01678792, 0.00000000, 0.00000000, 0.00000000, 0.00000000
1, 0.5475, 206, 0.92624140, 0.05918508, 0.37253329, 0.49286801, -4.34492111, -3.11179876, 0.00000000, 0.00000000, 0.00000000, -170.92382812, 66.82295227, -112.60871124, -0.49334174, -0.42539638, 0.71649218, 0.24958123, -0.00694847, 0.00290052, 0.01611295, 0.00000000, 0.00000000, 0.00000000, 0.00000000
1, 0.5500, 207, 0.92818362, 0.05967806, 0.37303853, 0.70555806, -4.34312248, -3.17891383, 0.00000000, 0.00000000, 0.00000000, -170.89973450, 66.83242035, -112.58441925, -0.49343351, -0.42541480, 0.71641976, 0.24957630, -0.00882566, 0.00254698, 0.01543152, 0.00000000, 0.00000000, 0.00000000, 0.00000000
1, 0.5525, 208, 0.93109268, 0.06114711, 0.37355649, 0.91902411, -4.62004042, -3.24731708, 0.00000000, 0.00000000, 0.00000000, -170.87442017, 66.84253693, -112.55938721, -0.49353191, -0.42543051, 0.71634489, 0.24956986, -0.01166528, 0.00122380, 0.01472574, 0.00000000, 0.00000000, 0.00000000, 0.00000000
1, 0.5550, 209, 0.92966539, 0.05921246, 0.37158695, 1.05970311, -4.62046432, -3.10602641, 0.00000000, 0.00000000, 0.00000000, -170.84956360, 66.85270691, -112.53522491, -0.49363086, -0.42544249, 0.71627212, 0.24956274, -0.01016819, 0.00330095, 0.01650712, 0.00000000, 0.00000000, 0.00000000, 0.00000000
1, 0.5575, 210, 0.92817026, 0.06064474, 0.37353039, 1.27149773, -4.89981699, -2.89538002, 0.00000000, 0.00000000, 0.00000000, -170.82510376, 66.86363220, -112.51208496, -0.49373499, -0.42544737, 0.71619940, 0.24955717, -0.00859815, 0.00200638, 0.01436359, 0.00000000, 0.00000000, 0.00000000, 0.00000000
1, 0.5600, 211, 0.92765892, 0.06062360, 0.37596139, 1.33949411, -5.11332798, -2.33736324, 0.00000000, 0.00000000, 0.00000000, -170.80346680, 66.87532806, -112.49220276, -0.49384004, -0.42544162, 0.71612990, 0.24955852, -0.00800663, 0.00214398, 0.01172376, 0.00000000, 0.00000000, 0.00000000, 0.00000000
1, 0.5625, 212, 0.93447936, 0.06163408, 0.37602150, 1.48114347, -5.46214771, -2.19768405, 0.00000000, 0.00000000, 0.00000000, -170.78195190, 66.88793945, -112.47281647, -0.49395105, -0.42543027, 0.71605867, 0.24956240, -0.01474071, 0.00124675, 0.01144037, 0.00000000, 0.00000000, 0.00000000, 0.00000000
1, 0.5650, 213, 0.93687648, 0.06845536, 0.37412751, 1.48136723, -5.39186001, -2.26712418, 0.00000000, 0.00000000, 0.00000000, -170.76007080, 66.90032959, -112.45304871, -0.49406141, -0.42542040, 0.71598762, 0.24956490, -0.01705289, -0.00545854, 0.01311392, 0.00000000, 0.00000000, 0.00000000, 0.00000000
1, 0.5675, 214, 0.93632680, 0.07377835, 0.37561139, 1.19772565, -5.32437611, -2.20057011, 0.00000000, 0.00000000, 0.00000000, -170.73930359, 66.91259003, -112.43374634, -0.49416769, -0.42541286, 0.71591628, 0.24957189, -0.01641923, -0.01067295, 0.01141295, 0.00000000, 0.00000000, 0.00000000, 0.00000000
1, 0.5700, 215, 0.93875432, 0.07085247, 0.37951234, 1.12616229, -5.18602371, -2.13104582, 0.00000000, 0.00000000, 0.00000000, -170.71925354, 66.92453003, -112.41500092, -0.49427074, -0.42540580, 0.71584672, 0.24957946, -0.01876510, -0.00764246, 0.00730077, 0.00000000, 0.00000000, 0.00000000, 0.00000000
1, 0.5725, 216, 0.93870509, 0.07423401, 0.38147739, 1.05785251, -5.46270132, -2.41226649, 0.00000000, 0.00000000, 0.00000000, -170.69744873, 66.93703461, -112.39418030, -0.49437901, -0.42540231, 0.71577120, 0.24958763, -0.01863039, -0.01090933, 0.00511342, 0.00000000, 0.00000000, 0.00000000, 0.00000000
1, 0.5750, 217, 0.94214422, 0.07573882, 0.37761647, 0.77591246, -5.25281477, -2.69388080, 0.00000000, 0.00000000, 0.00000000, -170.65922546, 66.95554352, -112.35532379, -0.49454391, -0.42542151, 0.71564245, 0.24959731, -0.02194298, -0.01220446, 0.00863859, 0.00000000, 0.00000000, 0.00000000, 0.00000000
1, 0.5775, 218, 0.94163835, 0.07669897, 0.37859139, 0.63623345, -5.46081972, -2.90589952, 0.00000000, 0.00000000, 0.00000000, -170.63557434, 66.96785736, -112.33132935, -0.49465090, -0.42543027, 0.71556002, 0.24960671, -0.02135301, -0.01303722, 0.00744268, 0.00000000, 0.00000000, 0.00000000, 0.00000000
1, 0.5800, 219, 0.94066745, 0.07669689, 0.37809649, 0.28450608, -5.59972620, -3.19000602, 0.00000000, 0.00000000, 0.00000000, -170.61097717, 66.98034668, -112.30538177, -0.49475834, -0.42544651, 0.71547151, 0.24961983, -0.02029682, -0.01290223, 0.00771183, 0.00000000, 0.00000000, 0.00000000, 0.00000000
1, 0.5825, 220, 0.94114298, 0.07913290, 0.37713867, 0.14337933, -5.73987770, -3.19241524, 0.00000000, 0.00000000, 0.00000000, -170.58656311, 66.99321747, -112.27924347, -0.49486664, -0.42546353, 0.71538067, 0.24963641, -0.02068454, -0.01520763, 0.00843874, 0.00000000, 0.00000000, 0.00000000, 0.00000000
1, 0.5850, 221, 0.94015038, 0.08155664, 0.37665606, -0.06844507, -5.60049200, -3.33394361, 0.00000000, 0.00000000, 0.00000000, -170.56195068, 67.00564575, -112.25232697, -0.49497157, -0.42548582, 0.71528888, 0.24965347, -0.01960719, -0.01749859, 0.00869656, 0.00000000, 0.00000000, 0.00000000, 0.00000000
1, 0.5875, 222, 0.93867326, 0.08202590, 0.37762064, -0.28035903, -5.88100719, -3.26811743, 0.00000000, 0.00000000, 0.00000000, -170.53796387, 67.01881409, -112.22550964, -0.49507853, -0.42550781, 0.71519351, 0.24967715, -0.01804030, -0.01784131, 0.00749648, 0.00000000, 0.00000000, 0.00000000, 0.00000000
1, 0.5900, 223, 0.93919247, 0.08009906, 0.37615386, -0.42232159, -6.02237606, -3.13100123, 0.00000000, 0.00000000, 0.00000000, -170.51496887, 67.03238678, -112.19938660, -0.49518561, -0.42552841, 0.71509707, 0.24970584, -0.01846707, -0.01579578, 0.00872257, 0.00000000, 0.00000000, 0.00000000, 0.00000000
1, 0.5925, 224, 0.93967128, 0.08058344, 0.37664720, -0.77778000, -6.02679491, -2.85636449, 0.00000000, 0.00000000, 0.00000000, -170.49441528, 67.04605865, -112.17497253, -0.49528798, -0.42554852, 0.71500123, 0.24974306, -0.01885277, -0.01617849, 0.00798926, 0.00000000, 0.00000000, 0.00000000, 0.00000000
1, 0.5950, 225, 0.93967158, 0.08107226, 0.37616268, -1.06067526, -6.37799454, -2.72198033, 0.00000000, 0.00000000, 0.00000000, -170.47499084, 67.06066132, -112.15098572, -0.49539247, -0.42556772, 0.71490127, 0.24978940, -0.01875359, -0.01657574, 0.00822052, 0.00000000, 0.00000000, 0.00000000, 0.00000000
1, 0.5975, 226, 0.93822306, 0.08205227, 0.37372079, -1.27420104, -6.38101101, -2.51534033, 0.00000000, 0.00000000, 0.00000000, -170.45727539, 67.07536316, -112.12829590, -0.49549386, -0.42558593, 0.71480203, 0.24984133, -0.01720524, -0.01747604, 0.01040963, 0.00000000, 0.00000000, 0.00000000, 0.00000000
1, 0.6000, 227, 0.93972260, 0.08013482, 0.37177491, -1.48711479, -6.45309782, -2.37878489, 0.00000000, 0.00000000, 0.00000000, -170.44079590, 67.09026337, -112.10636902, -0.49559361, -0.42560387, 0.71470201, 0.24989870, -0.01860344, -0.01548789, 0.01210034, 0.00000000, 0.00000000, 0.00000000, 0.00000000
1, 0.6025, 228, 0.93729365, 0.08110543, 0.36981216, -1.48733878, -6.52338552, -2.30934477, 0.00000000, 0.00000000, 0.00000000, -170.42463684, 67.10538483, -112.08477783, -0.49569410, -0.42562041, 0.71460193, 0.24995750, -0.01607180, -0.01639062, 0.01380507, 0.00000000, 0.00000000, 0.00000000, 0.00000000
1, 0.6050, 229, 0.93776917, 0.08354143, 0.36885437, -1.62865961, -6.59385824, -2.31143188, 0.00000000, 0.00000000, 0.00000000, -170.40870667, 67.12068939, -112.06307220, -0.49579439, -0.42563808, 0.71450031, 0.25001913, -0.01644349, -0.01876100, 0.01450238, 0.00000000, 0.00000000, 0.00000000, 0.00000000
1, 0.6075, 230, 0.93586278, 0.08063358, 0.36687598, -1.62924170, -6.38482046, -2.31046581, 0.00000000, 0.00000000, 0.00000000, -170.39295959, 67.13545227, -112.04157257, -0.49589139, -0.42565686, 0.71440089, 0.25007883, -0.01443690, -0.01578752, 0.01622871, 0.00000000, 0.00000000, 0.00000000, 0.00000000
1, 0.6275, 231, 0.92816502, 0.07920527, 0.35706586, -1.49784541, -4.85961103, -1.32494104, 0.00000000, 0.00000000, 0.00000000, -170.26724243, 67.25032043, -111.86994171, -0.49664691, -0.42581430, 0.71361911, 0.25054306, -0.00596207, -0.01383121, 0.02407414, 0.00000000, 0.00000000, 0.00000000, 0.00000000
1, 0.6300, 232, 0.92814660, 0.07967947, 0.35852924, -1.42934179, -4.65261173, -1.04404247, 0.00000000, 0.00000000, 0.00000000, -170.26000977, 67.26134491, -111.85820007, -0.49671176, -0.42582062, 0.71355122, 0.25059721, -0.00586927, -0.01428717, 0.02242771, 0.00000000, 0.00000000, 0.00000000, 0.00000000
1, 0.6325, 233, 0.92766351, 0.07968026, 0.35803831, -1.14914775, -4.23538589, -0.75953001, 0.00000000, 0.00000000, 0.00000000, -170.25413513, 67.27145386, -111.84872437, -0.49677116, -0.42582175, 0.71349204, 0.25064620, -0.00531799, -0.01427649, 0.02275154, 0.00000000, 0.00000000, 0.00000000, 0.00000000
1, 0.6350, 234, 0.92668855, 0.08065216, 0.35706136, -1.00905085, -4.02677250, -0.61727381, 0.00000000, 0.00000000, 0.00000000, -170.24896240, 67.28112030, -111.84038544, -0.49682781, -0.42582026, 0.71343714, 0.25069264, -0.00427783, -0.01524034, 0.02356938, 0.00000000, 0.00000000, 0.00000000, 0.00000000
1, 0.6375, 235, 0.92570430, 0.08161676, 0.35705835, -0.86853606, -3.81755042, -0.54478008, 0.00000000, 0.00000000, 0.00000000, -170.24404907, 67.29029846, -111.83271027, -0.49688214, -0.42581728, 0.71338594, 0.25073570, -0.00323177, -0.01619739, 0.02342117, 0.00000000, 0.00000000, 0.00000000, 0.00000000
1, 0.6400, 236, 0.92521322, 0.08356551, 0.35560322, -0.72782725, -3.67800808, -0.47260836, 0.00000000, 0.00000000, 0.00000000, -170.23936462, 67.29917145, -111.82565308, -0.49693522, -0.42581242, 0.71333766, 0.25077608, -0.00268090, -0.01813919, 0.02473039, 0.00000000, 0.00000000, 0.00000000, 0.00000000
1, 0.6425, 237, 0.92523062, 0.08162485, 0.35559344, -0.65845782, -3.32982445, -0.40035310, 0.00000000, 0.00000000, 0.00000000, -170.23529053, 67.30718994, -111.81943512, -0.49698311, -0.42580760, 0.71329427, 0.25081292, -0.00264424, -0.01619333, 0.02460796, 0.00000000, 0.00000000, 0.00000000, 0.00000000
1, 0.6450, 238, 0.92376679, 0.08112743, 0.35606617, -0.58667052, -3.39788914, -0.53931755, 0.00000000, 0.00000000, 0.00000000, -170.23011780, 67.31531525, -111.81225586, -0.49703348, -0.42580375, 0.71324921, 0.25084776, -0.00112575, -0.01568393, 0.02400015, 0.00000000, 0.00000000, 0.00000000, 0.00000000
1, 0.6475, 239, 0.92522663, 0.08259884, 0.35511136, -0.51671916, -3.25874305, -0.46802837, 0.00000000, 0.00000000, 0.00000000, -170.22534180, 67.32316589, -111.80567932, -0.49708194, -0.42579880, 0.71320671, 0.25088099, -0.00253272, -0.01714509, 0.02482534, 0.00000000, 0.00000000, 0.00000000, 0.00000000
1, 0.6500, 240, 0.92472976, 0.08307748, 0.35559684, -0.30502900, -3.04851580, -0.46441454, 0.00000000, 0.00000000, 0.00000000, -170.22027588, 67.33047485, -111.79935455, -0.49712908, -0.42579263, 0.71316767, 0.25090900, -0.00198668, -0.01761007, 0.02421797, 0.00000000, 0.00000000, 0.00000000, 0.00000000
1, 0.6525, 241, 0.92474419, 0.08357726, 0.35365134, -0.30525288, -3.11880350, -0.39497414, 0.00000000, 0.00000000, 0.00000000, -170.21553040, 67.33798981, -111.79338837, -0.49717695, -0.42578501, 0.71312851, 0.25093845, -0.00195062, -0.01809905, 0.02603871, 0.00000000, 0.00000000, 0.00000000, 0.00000000
1, 0.6550, 242, 0.92181706, 0.08307122, 0.35411221, -0.23507756, -2.90936947, -0.39312544, 0.00000000, 0.00000000, 0.00000000, -170.21083069, 67.34498596, -111.78765869, -0.49722219, -0.42577776, 0.71309197, 0.25096485, 0.00102359, -0.01758099, 0.02546135, 0.00000000, 0.00000000, 0.00000000, 0.00000000
1, 0.6575, 243, 0.92427379, 0.08163373, 0.35363761, -0.16454403, -2.97926092, -0.32280245, 0.00000000, 0.00000000, 0.00000000, -170.20629883, 67.35219574, -111.78230286, -0.49726877, -0.42576829, 0.71305573, 0.25099158, -0.00138468, -0.01613319, 0.02581642, 0.00000000, 0.00000000, 0.00000000, 0.00000000
1, 0.6600, 244, 0.92379028, 0.08114570, 0.35363123, -0.16476789, -3.04954863, -0.25336203, 0.00000000, 0.00000000, 0.00000000, -170.20208740, 67.35960388, -111.77729797, -0.49731609, -0.42575732, 0.71301937, 0.25101972, -0.00085139, -0.01563761, 0.02570043, 0.00000000, 0.00000000, 0.00000000, 0.00000000
1, 0.6625, 245, 0.92574662, 0.08164965, 0.35267547, -0.02367102, -3.04936433, -0.18183441, 0.00000000, 0.00000000, 0.00000000, -170.19796753, 67.36703491, -111.77276611, -0.49736431, -0.42574373, 0.71298450, 0.25104645, -0.00275773, -0.01613466, 0.02653358, 0.00000000, 0.00000000, 0.00000000, 0.00000000
1, 0.6650, 246, 0.92574149, 0.08115717, 0.35364699, 0.04831015, -3.18710828, -0.32112089, 0.00000000, 0.00000000, 0.00000000, -170.19270325, 67.37474060, -111.76719666, -0.49741602, -0.42573068, 0.71294713, 0.25107178, -0.00270092, -0.01562845, 0.02543354, 0.00000000, 0.00000000, 0.00000000, 0.00000000
1, 0.6675, 247, 0.92623329, 0.08018605, 0.35413307, 0.18898918, -3.18753266, -0.17983080, 0.00000000, 0.00000000, 0.00000000, -170.18789673, 67.38253021, -111.76249695, -0.49746841, -0.42571402, 0.71291196, 0.25109652, -0.00314045, -0.01464691, 0.02481852, 0.00000000, 0.00000000, 0.00000000, 0.00000000
1, 0.6700, 248, 0.92723209, 0.07972123, 0.35219055, 0.25891078, -3.18835354, -0.03942329, 0.00000000, 0.00000000, 0.00000000, -170.18376160, 67.39035797, -111.75871277, -0.49752063, -0.42569438, 0.71287841, 0.25112167, -0.00408661, -0.01417624, 0.02663190, 0.00000000, 0.00000000, 0.00000000, 0.00000000
1, 0.6725, 249, 0.92822611, 0.07925277, 0.35073504, 0.40045539, -3.04759288, -0.10677654, 0.00000000, 0.00000000, 0.00000000, -170.17900085, 67.39781952, -111.75465393, -0.49757227, -0.42567495, 0.71284646, 0.25114256, -0.00503063, -0.01369684, 0.02796352, 0.00000000, 0.00000000, 0.00000000, 0.00000000
1, 0.6750, 250, 0.92965293, 0.08069859, 0.35318914, 0.54135817, -2.97772956, -0.03492688, 0.00000000, 0.00000000, 0.00000000, -170.11593628, 67.43206024, -111.69027710, -0.49786246, -0.42569101, 0.71262085, 0.25118059, -0.00622797, -0.01482053, 0.02489343, 0.00000000, 0.00000000, 0.00000000, 0.00000000
1, 0.6775, 251, 0.93210137, 0.08072025, 0.35223490, 0.68245512, -2.97754478, 0.03660072, 0.00000000, 0.00000000, 0.00000000, -170.11137390, 67.43941498, -111.68718719, -0.49791488, -0.42566669, 0.71259260, 0.25119802, -0.00862718, -0.01483241, 0.02572575, 0.00000000, 0.00000000, 0.00000000, 0.00000000
1, 0.6800, 252, 0.93306363, 0.08169267, 0.35273466, 0.89411539, -2.90728450, 0.10933295, 0.00000000, 0.00000000, 0.00000000, -170.10676575, 67.44662476, -111.68462372, -0.49796781, -0.42563933, 0.71256691, 0.25121230, -0.00954115, -0.01579446, 0.02510622, 0.00000000, 0.00000000, 0.00000000, 0.00000000
1, 0.6825, 253, 0.93450922, 0.08315311, 0.35324082, 1.03524208, -2.76713347, 0.11174218, 0.00000000, 0.00000000, 0.00000000, -170.10197449, 67.45348358, -111.68224335, -0.49801981, -0.42561120, 0.71254355, 0.25122312, -0.01094085, -0.01724232, 0.02448562, 0.00000000, 0.00000000, 0.00000000, 0.00000000
1, 0.6850, 254, 0.93500066, 0.08169317, 0.35421142, 0.96406698, -2.76813865, 0.18062209, 0.00000000, 0.00000000, 0.00000000, -170.09776306, 67.46037292, -111.68029785, -0.49807081, -0.42558277, 0.71252048, 0.25123578, -0.01138616, -0.01577375, 0.02340076, 0.00000000, 0.00000000, 0.00000000, 0.00000000
1, 0.6875, 255, 0.93596649, 0.08120278, 0.35567778, 0.89147377, -2.56132436, 0.38999310, 0.00000000, 0.00000000, 0.00000000, -170.09519958, 67.46683502, -111.67992401, -0.49811676, -0.42555299, 0.71250117, 0.25124994, -0.01230878, -0.01528438, 0.02182854, 0.00000000, 0.00000000, 0.00000000, 0.00000000
1, 0.6900, 256, 0.93645900, 0.08120931, 0.35519478, 1.10291016, -2.56135201, 0.53216571, 0.00000000, 0.00000000, 0.00000000, -170.09294128, 67.47340393, -111.68046570, -0.49816391, -0.42551869, 0.71248430, 0.25126237, -0.01275736, -0.01529421, 0.02220521, 0.00000000, 0.00000000, 0.00000000, 0.00000000
1, 0.6925, 257, 0.93888468, 0.08219032, 0.35570636, 1.17199588, -2.56339049, 0.81209815, 0.00000000, 0.00000000, 0.00000000, -170.09217834, 67.48004150, -111.68281555, -0.49821019, -0.42547926, 0.71247041, 0.25127676, -0.01513863, -0.01628863, 0.02158681, 0.00000000, 0.00000000, 0.00000000, 0.00000000
1, 0.6950, 258, 0.94081807, 0.08365364, 0.35621646, 1.10023880, -2.35535860, 0.88194418, 0.00000000, 0.00000000, 0.00000000, -170.09222412, 67.48622131, -111.68583679, -0.49825218, -0.42544070, 0.71245903, 0.25129110, -0.01703078, -0.01776936, 0.02097872, 0.00000000, 0.00000000, 0.00000000, 0.00000000
1, 0.6975, 259, 0.94081372, 0.08413880, 0.35621890, 1.16977227, -2.21682143, 1.02299571, 0.00000000, 0.00000000, 0.00000000, -170.09307861, 67.49211884, -111.68993378, -0.49829188, -0.42539990, 0.71245086, 0.25130460, -0.01698697, -0.01827655, 0.02088356, 0.00000000, 0.00000000, 0.00000000, 0.00000000
1, 0.7000, 260, 0.94177526, 0.08413357, 0.35768774, 1.31025720, -2.14756656, 1.16460788, 0.00000000, 0.00000000, 0.00000000, -170.09449768, 67.49790955, -111.69503021, -0.49833098, -0.42535573, 0.71244550, 0.25131679, -0.01790982, -0.01829670, 0.01932451, 0.00000000, 0.00000000, 0.00000000, 0.00000000
1, 0.7025, 261, 0.94174379, 0.08606327, 0.35915846, 1.16729486, -2.08050704, 1.37245202, 0.00000000, 0.00000000, 0.00000000, -170.09757996, 67.50363922, -111.70151520, -0.49836668, -0.42531034, 0.71244204, 0.25133291, -0.01784015, -0.02026253, 0.01776648, 0.00000000, 0.00000000, 0.00000000, 0.00000000
1, 0.7050, 262, 0.94176984, 0.08315228, 0.35914379, 1.16568303, -1.80300844, 1.51326513, 0.00000000, 0.00000000, 0.00000000, -170.10179138, 67.50870514, -111.70922852, -0.49839723, -0.42526427, 0.71244287, 0.25134796, -0.01783234, -0.01739335, 0.01770512, 0.00000000, 0.00000000, 0.00000000, 0.00000000
1, 0.7075, 263, 0.94321227, 0.08656435, 0.35819876, 1.09389591, -1.73494375, 1.65222979, 0.00000000, 0.00000000, 0.00000000, -170.10708618, 67.51369476, -111.71792603, -0.49842525, -0.42521712, 0.71244532, 0.25136498, -0.01924145, -0.02085405, 0.01857713, 0.00000000, 0.00000000, 0.00000000, 0.00000000
1, 0.7100, 264, 0.94126862, 0.08411609, 0.35963175, 0.95054549, -1.52852619, 1.86071813, 0.00000000, 0.00000000, 0.00000000, -170.11418152, 67.51826477, -111.72818756, -0.49844763, -0.42516950, 0.71245116, 0.25138462, -0.01726729, -0.01846515, 0.01707974, 0.00000000, 0.00000000, 0.00000000, 0.00000000
1, 0.7125, 265, 0.94076169, 0.08360979, 0.36206025, 0.94935155, -1.25041854, 1.93176889, 0.00000000, 0.00000000, 0.00000000, -170.12200928, 67.52216339, -111.73921967, -0.49846527, -0.42512232, 0.71246064, 0.25140247, -0.01673436, -0.01802108, 0.01459807, 0.00000000, 0.00000000, 0.00000000, 0.00000000
1, 0.7150, 266, 0.93928927, 0.08408269, 0.36253786, 0.94790387, -1.18256581, 2.14137816, 0.00000000, 0.00000000, 0.00000000, -170.13114929, 67.52598572, -111.75167847, -0.49848077, -0.42507228, 0.71247286, 0.25142202, -0.01523644, -0.01856472, 0.01407001, 0.00000000, 0.00000000, 0.00000000, 0.00000000
1, 0.7175, 267, 0.93934864, 0.08168610, 0.35862976, 0.94526231, -0.83660555, 2.42203832, 0.00000000, 0.00000000, 0.00000000, -170.14234924, 67.52909851, -111.76634216, -0.49848923, -0.42501977, 0.71249139, 0.25144142, -0.01527501, -0.01625026, 0.01794172, 0.00000000, 0.00000000, 0.00000000, 0.00000000
1, 0.7200, 268, 0.93693668, 0.08022723, 0.35714176, 0.94465041, -0.76753521, 2.49212289, 0.00000000, 0.00000000, 0.00000000, -170.15405273, 67.53205872, -111.78155518, -0.49849623, -0.42496654, 0.71251136, 0.25146097, -0.01284331, -0.01487638, 0.01939610, 0.00000000, 0.00000000, 0.00000000, 0.00000000
1, 0.7225, 269, 0.93693638, 0.07973840, 0.35762629, 0.94239676, -0.56093317, 2.77213883, 0.00000000, 0.00000000, 0.00000000, -170.16761780, 67.53462219, -111.79881287, -0.49849844, -0.42491007, 0.71253610, 0.25148165, -0.01282591, -0.01448389, 0.01888624, 0.00000000, 0.00000000, 0.00000000, 0.00000000
1, 0.7250, 270, 0.93550473, 0.07828892, 0.35565919, 0.87083334, -0.42258030, 2.84166288, 0.00000000, 0.00000000, 0.00000000, -170.13856506, 67.55813599, -111.77169037, -0.49868181, -0.42487639, 0.71241349, 0.25152230, -0.01123756, -0.01290841, 0.02044672, 0.00000000, 0.00000000, 0.00000000, 0.00000000
1, 0.7275, 271, 0.93453312, 0.07730920, 0.35613340, 1.08126998, -0.21417949, 3.05456400, 0.00000000, 0.00000000, 0.00000000, -170.15386963, 67.55996704, -111.79117584, -0.49867842, -0.42481598, 0.71244544, 0.25154072, -0.01025373, -0.01203416, 0.01996082, 0.00000000, 0.00000000, 0.00000000, 0.00000000
1, 0.7300, 272, 0.93261343, 0.07536802, 0.35464686, 1.22256076, -0.28367403, 3.12576962, 0.00000000, 0.00000000, 0.00000000, -170.16917419, 67.56200409, -111.81101990, -0.49867699, -0.42475256, 0.71247804, 0.25155836, -0.00832051, -0.01019899, 0.02143252, 0.00000000, 0.00000000, 0.00000000, 0.00000000
1, 0.7325, 273, 0.93165189, 0.07537325, 0.35317805, 1.29251218, -0.14452790, 3.19705868, 0.00000000, 0.00000000, 0.00000000, -170.18486023, 67.56372070, -111.83149719, -0.49867365, -0.42468801, 0.71251321, 0.25157440, -0.00734746, -0.01031195, 0.02289179, 0.00000000, 0.00000000, 0.00000000, 0.00000000
1, 0.7350, 274, 0.92873818, 0.07390054, 0.35314703, 1.43360925, -0.14434336, 3.26858640, 0.00000000, 0.00000000, 0.00000000, -170.20062256, 67.56546783, -111.85243988, -0.49867123, -0.42462081, 0.71254981, 0.25158900, -0.00442213, -0.00894754, 0.02291295, 0.00000000, 0.00000000, 0.00000000, 0.00000000
1, 0.7375, 275, 0.92438912, 0.07244116, 0.35018229, 1.57393003, 0.13455755, 3.34140229, 0.00000000, 0.00000000, 0.00000000, -170.21676636, 67.56654358, -111.87416077, -0.49866539, -0.42455247, 0.71259087, 0.25159964, -0.00006592, -0.00759716, 0.02587862, 0.00000000, 0.00000000, 0.00000000, 0.00000000
1, 0.7400, 276, 0.92243797, 0.07242969, 0.35016650, 1.85679507, 0.34579033, 3.27613616, 0.00000000, 0.00000000, 0.00000000, -170.23202515, 67.56708527, -111.89569092, -0.49865925, -0.42448324, 0.71263516, 0.25160322, 0.00188881, -0.00768728, 0.02590311, 0.00000000, 0.00000000, 0.00000000, 0.00000000
1, 0.7425, 277, 0.92194879, 0.07047154, 0.35210073, 2.06990337, 0.34819794, 3.13925886, 0.00000000, 0.00000000, 0.00000000, -170.24595642, 67.56755829, -111.91635895, -0.49865577, -0.42441380, 0.71267939, 0.25160196, 0.00238121, -0.00582182, 0.02397711, 0.00000000, 0.00000000, 0.00000000, 0.00000000
1, 0.7450, 278, 0.91951406, 0.06997203, 0.35207856, 2.13985515, 0.48734400, 3.21054792, 0.00000000, 0.00000000, 0.00000000, -170.26026917, 67.56770325, -111.93762207, -0.49865040, -0.42434329, 0.71272618, 0.25159910, 0.00481701, -0.00541668, 0.02401292, 0.00000000, 0.00000000, 0.00000000, 0.00000000
1, 0.7475, 279, 0.91951406, 0.06997203, 0.35207856, 2.13985515, 0.48734400, 3.21054792, 0.00000000, 0.00000000, 0.00000000, -170.27456665, 67.56787109, -111.95889282, -0.49864498, -0.42427272, 0.71277291, 0.25159621, 0.00481796, -0.00551104, 0.02402651, 0.00000000, 0.00000000, 0.00000000, 0.00000000
1, 0.7500, 280, 0.91706532, 0.06946157, 0.35351732, 2.63585806, 0.84095138, 2.93928623, 0.00000000, 0.00000000, 0.00000000, -170.28639221, 67.56703949, -111.97880554, -0.49864018, -0.42420295, 0.71282375, 0.25157940, 0.00726122, -0.00507586, 0.02261427, 0.00000000, 0.00000000, 0.00000000, 0.00000000
1, 0.7525, 281, 0.91706532, 0.06946157, 0.35351732, 2.63585806, 0.84095138, 2.93928623, 0.00000000, 0.00000000, 0.00000000, -170.29820251, 67.56620026, -111.99871063, -0.49863538, -0.42413318, 0.71287459, 0.25156260, 0.00725561, -0.00515112, 0.02264073, 0.00000000, 0.00000000, 0.00000000, 0.00000000
1, 0.7550, 282, 0.91463536, 0.06896571, 0.35300818, 2.92200685, 0.77712053, 2.45415735, 0.00000000, 0.00000000, 0.00000000, -170.30635071, 67.56533051, -112.01542664, -0.49863684, -0.42406747, 0.71292180, 0.25153667, 0.00967974, -0.00470634, 0.02317313, 0.00000000, 0.00000000, 0.00000000, 0.00000000
1, 0.7575, 283, 0.91463536, 0.06896571, 0.35300818, 2.92200685, 0.77712053, 2.45415735, 0.00000000, 0.00000000, 0.00000000, -170.31448364, 67.56443787, -112.03214264, -0.49863830, -0.42400175, 0.71296901, 0.25151074, 0.00967384, -0.00475742, 0.02319628, 0.00000000, 0.00000000, 0.00000000, 0.00000000
1, 0.7600, 284, 0.91802210, 0.06945269, 0.35547313, 3.20590186, 0.91989183, 2.24904418, 0.00000000, 0.00000000, 0.00000000, -170.32083130, 67.56314087, -112.04768372, -0.49864131, -0.42393693, 0.71301740, 0.25147682, 0.00627846, -0.00528248, 0.02075944, 0.00000000, 0.00000000, 0.00000000, 0.00000000
1, 0.7625, 285, 0.91802210, 0.06945269, 0.35547313, 3.20590186, 0.91989183, 2.24904418, 0.00000000, 0.00000000, 0.00000000, -170.32717896, 67.56179047, -112.06321716, -0.49864432, -0.42387211, 0.71306580, 0.25144291, 0.00626946, -0.00532054, 0.02078751, 0.00000000, 0.00000000, 0.00000000, 0.00000000
1, 0.7650, 286, 0.91898149, 0.06651454, 0.35984921, 3.20673776, 0.92110944, 2.10951924, 0.00000000, 0.00000000, 0.00000000, -170.33268738, 67.56040192, -112.07784271, -0.49864808, -0.42380947, 0.71311289, 0.25140744, 0.00530082, -0.00241479, 0.01643962, 0.00000000, 0.00000000, 0.00000000, 0.00000000
1, 0.7675, 287, 0.92042679, 0.06748617, 0.36083990, 3.20737934, 0.99200618, 1.97031653, 0.00000000, 0.00000000, 0.00000000, -170.33741760, 67.55880737, -112.09165955, -0.49865147, -0.42374936, 0.71315950, 0.25136980, 0.00384486, -0.00341321, 0.01548005, 0.00000000, 0.00000000, 0.00000000, 0.00000000
1, 0.7700, 288, 0.92383665, 0.06750260, 0.36135453, 3.35011792, 0.85465890, 1.83191252, 0.00000000, 0.00000000, 0.00000000, -170.34085083, 67.55747223, -112.10442352, -0.49865910, -0.42368910, 0.71320409, 0.25132972, 0.00042611, -0.00344849, 0.01499045, 0.00000000, 0.00000000, 0.00000000, 0.00000000
1, 0.7725, 289, 0.92675376, 0.06702368, 0.36283669, 3.42168117, 0.71630609, 1.76238835, 0.00000000, 0.00000000, 0.00000000, -170.34353638, 67.55644989, -112.11658478, -0.49866992, -0.42362839, 0.71324694, 0.25128904, -0.00249779, -0.00298448, 0.01352761, 0.00000000, 0.00000000, 0.00000000, 0.00000000
1, 0.7750, 290, 0.92627466, 0.06605048, 0.36282787, 3.42309928, 0.50848645, 1.62189734, 0.00000000, 0.00000000, 0.00000000, -170.33665466, 67.56561279, -112.11928558, -0.49875414, -0.42355227, 0.71323836, 0.25127456, -0.00195765, -0.00199086, 0.01338300, 0.00000000, 0.00000000, 0.00000000, 0.00000000
1, 0.7775, 291, 0.92868614, 0.06702054, 0.36480042, 3.42354679, 0.64906222, 1.48301673, 0.00000000, 0.00000000, 0.00000000, -170.33760071, 67.56461334, -112.12957764, -0.49876755, -0.42349550, 0.71327788, 0.25123143, -0.00437582, -0.00296453, 0.01142699, 0.00000000, 0.00000000, 0.00000000, 0.00000000
1, 0.7800, 292, 0.92964190, 0.06554519, 0.36820984, 3.42454672, 0.44063374, 1.41228783, 0.00000000, 0.00000000, 0.00000000, -170.33792114, 67.56412506, -112.13916779, -0.49878460, -0.42343870, 0.71331447, 0.25118944, -0.00533480, -0.00148990, 0.00802571, 0.00000000, 0.00000000, 0.00000000, 0.00000000
1, 0.7825, 293, 0.93108147, 0.06504671, 0.37114117, 3.35437155, 0.23119977, 1.41043913, 0.00000000, 0.00000000, 0.00000000, -170.33818054, 67.56414795, -112.14853668, -0.49880427, -0.42338154, 0.71334839, 0.25115046, -0.00677425, -0.00099324, 0.00509438, 0.00000000, 0.00000000, 0.00000000, 0.00000000
1, 0.7850, 294, 0.93204767, 0.06504514, 0.37212300, 3.14293528, 0.23122737, 1.26826668, 0.00000000, 0.00000000, 0.00000000, -170.33813477, 67.56410980, -112.15696716, -0.49882275, -0.42332888, 0.71337986, 0.25111321, -0.00774056, -0.00099121, 0.00411314, 0.00000000, 0.00000000, 0.00000000, 0.00000000
1, 0.7875, 295, 0.93401188, 0.06360111, 0.37213147, 3.00119638, 0.16014615, 1.33594203, 0.00000000, 0.00000000, 0.00000000, -170.33877563, 67.56427002, -112.16577148, -0.49884063, -0.42327628, 0.71341038, 0.25107956, -0.00970382, 0.00044815, 0.00410268, 0.00000000, 0.00000000, 0.00000000, 0.00000000
1, 0.7900, 296, 0.93499684, 0.06361416, 0.37116539, 2.93079734, -0.11957569, 1.40353346, 0.00000000, 0.00000000, 0.00000000, -170.33970642, 67.56515503, -112.17470551, -0.49886185, -0.42322189, 0.71343809, 0.25105032, -0.01068288, 0.00042661, 0.00505585, 0.00000000, 0.00000000, 0.00000000, 0.00000000
1, 0.7925, 297, 0.93692422, 0.06311854, 0.37410063, 2.71907711, -0.46977004, 1.46903825, 0.00000000, 0.00000000, 0.00000000, -170.34120178, 67.56692505, -112.18368530, -0.49888620, -0.42316687, 0.71346146, 0.25102833, -0.01259846, 0.00090760, 0.00209415, 0.00000000, 0.00000000, 0.00000000, 0.00000000
1, 0.7950, 298, 0.93839633, 0.06215681, 0.37410757, 2.64703631, -0.61196011, 1.74656129, 0.00000000, 0.00000000, 0.00000000, -170.34439087, 67.56916046, -112.19429016, -0.49891061, -0.42310753, 0.71348542, 0.25101179, -0.01405573, 0.00184232, 0.00205505, 0.00000000, 0.00000000, 0.00000000, 0.00000000
1, 0.7975, 299, 0.93887037, 0.06263754, 0.37508795, 2.57786083, -1.02982259, 1.67398417, 0.00000000, 0.00000000, 0.00000000, -170.34689331, 67.57241821, -112.20397186, -0.49894124, -0.42304781, 0.71350378, 0.25099939, -0.01450807, 0.00133645, 0.00102600, 0.00000000, 0.00000000, 0.00000000, 0.00000000
1, 0.8000, 300, 0.94129628, 0.06410738, 0.37511501, 2.50684977, -1.24047422, 1.81166029, 0.00000000, 0.00000000, 0.00000000, -170.35017395, 67.57622528, -112.21430969, -0.49897376, -0.42298552, 0.71352071, 0.25099152, -0.01690859, -0.00016534, 0.00094196, 0.00000000, 0.00000000, 0.00000000, 0.00000000
1, 0.8025, 301, 0.94132847, 0.06315532, 0.37267515, 2.36549902, -1.45091355, 1.87869143, 0.00000000, 0.00000000, 0.00000000, -170.35401917, 67.58058167, -112.22484589, -0.49900788, -0.42292258, 0.71353519, 0.25098854, -0.01691180, 0.00074977, 0.00331664, 0.00000000, 0.00000000, 0.00000000, 0.00000000
1, 0.8050, 302, 0.94277412, 0.06461576, 0.37318134, 2.43661499, -1.72984219, 1.94804847, 0.00000000, 0.00000000, 0.00000000, -170.35781860, 67.58567047, -112.23554993, -0.49904662, -0.42285624, 0.71354771, 0.25098777, -0.01832360, -0.00074931, 0.00273401, 0.00000000, 0.00000000, 0.00000000, 0.00000000
1, 0.8075, 303, 0.94327533, 0.06365196, 0.37269339, 2.36499166, -1.87142336, 2.15580916, 0.00000000, 0.00000000, 0.00000000, -170.36288452, 67.59118652, -112.24742889, -0.49908578, -0.42278668, 0.71356016, 0.25099170, -0.01878810, 0.00016631, 0.00313971, 0.00000000, 0.00000000, 0.00000000, 0.00000000
1, 0.8100, 304, 0.94230044, 0.06462386, 0.37171641, 2.43594337, -1.94070578, 2.15636969, 0.00000000, 0.00000000, 0.00000000, -170.36770630, 67.59687805, -112.25924683, -0.49912667, -0.42271596, 0.71357226, 0.25099516, -0.01777536, -0.00085262, 0.00403163, 0.00000000, 0.00000000, 0.00000000, 0.00000000
1, 0.8125, 305, 0.94424659, 0.06414286, 0.37270373, 2.15307808, -2.15193844, 2.22163558, 0.00000000, 0.00000000, 0.00000000, -170.37344360, 67.60310364, -112.27126312, -0.49916780, -0.42264608, 0.71358109, 0.25100565, -0.01968008, -0.00042600, 0.00295159, 0.00000000, 0.00000000, 0.00000000, 0.00000000
1, 0.8150, 306, 0.94278789, 0.06413791, 0.37220493, 1.94161165, -2.29187799, 2.14858150, 0.00000000, 0.00000000, 0.00000000, -170.37911987, 67.60962677, -112.28265381, -0.49920961, -0.42257896, 0.71358657, 0.25101995, -0.01817799, -0.00047589, 0.00335255, 0.00000000, 0.00000000, 0.00000000, 0.00000000
1, 0.8175, 307, 0.94326305, 0.06608509, 0.37173164, 1.87021220, -2.36317134, 2.28690147, 0.00000000, 0.00000000, 0.00000000, -170.38572693, 67.61642456, -112.29486084, -0.49925113, -0.42251006, 0.71359217, 0.25103754, -0.01860798, -0.00248471, 0.00372526, 0.00000000, 0.00000000, 0.00000000, 0.00000000
1, 0.8200, 308, 0.94133824, 0.06365144, 0.37121668, 1.65832818, -2.50371981, 2.28360963, 0.00000000, 0.00000000, 0.00000000, -170.39271545, 67.62355804, -112.30689240, -0.49929288, -0.42244273, 0.71359503, 0.25105968, -0.01663572, -0.00011605, 0.00413469, 0.00000000, 0.00000000, 0.00000000, 0.00000000
1, 0.8225, 309, 0.93991613, 0.06220926, 0.36827558, 1.51597762, -2.50573063, 2.42136979, 0.00000000, 0.00000000, 0.00000000, -170.40089417, 67.63073730, -112.31983185, -0.49933261, -0.42237478, 0.71359831, 0.25108555, -0.01516593, 0.00125329, 0.00697044, 0.00000000, 0.00000000, 0.00000000, 0.00000000
1, 0.8250, 310, 0.93895888, 0.06172932, 0.36680430, 1.44477272, -2.64670300, 2.55936790, 0.00000000, 0.00000000, 0.00000000, -170.41033936, 67.64663696, -112.33469391, -0.49942228, -0.42227256, 0.71357375, 0.25114912, -0.01410312, 0.00162847, 0.00819877, 0.00000000, 0.00000000, 0.00000000, 0.00000000
1, 0.8275, 311, 0.93897009, 0.06418073, 0.36340767, 1.23311234, -2.71696305, 2.48663568, 0.00000000, 0.00000000, 0.00000000, -170.41941833, 67.65440369, -112.34783936, -0.49946231, -0.42220551, 0.71357381, 0.25118205, -0.01406277, -0.00090313, 0.01148236, 0.00000000, 0.00000000, 0.00000000, 0.00000000
1, 0.8300, 312, 0.93510455, 0.06320938, 0.36044928, 1.01981020, -2.64969182, 2.62383533, 0.00000000, 0.00000000, 0.00000000, -170.42993164, 67.66201782, -112.36196136, -0.49949858, -0.42213902, 0.71357471, 0.25121918, -0.01014674, -0.00002101, 0.01433099, 0.00000000, 0.00000000, 0.00000000, 0.00000000
1, 0.8325, 313, 0.93316132, 0.06124993, 0.36139771, 0.80712026, -2.65149069, 2.69094992, 0.00000000, 0.00000000, 0.00000000, -170.44139099, 67.66966248, -112.37652588, -0.49953252, -0.42207378, 0.71357501, 0.25126037, -0.00815278, 0.00184298, 0.01327336, 0.00000000, 0.00000000, 0.00000000, 0.00000000
1, 0.8350, 314, 0.93071365, 0.06220592, 0.36138287, 0.59401238, -2.65389824, 2.82782698, 0.00000000, 0.00000000, 0.00000000, -170.45420837, 67.67737579, -112.39198303, -0.49956381, -0.42200875, 0.71357542, 0.25130638, -0.00565380, 0.00078252, 0.01317948, 0.00000000, 0.00000000, 0.00000000, 0.00000000
1, 0.8375, 315, 0.93024892, 0.06173250, 0.35942855, 0.24144928, -2.79402232, 2.68324518, 0.00000000, 0.00000000, 0.00000000, -170.46688843, 67.68538666, -112.40636444, -0.49959478, -0.42194897, 0.71357095, 0.25135756, -0.00513613, 0.00115162, 0.01502034, 0.00000000, 0.00000000, 0.00000000, 0.00000000
1, 0.8400, 316, 0.92686474, 0.05831627, 0.35938382, 0.09915841, -2.51609921, 2.68276834, 0.00000000, 0.00000000, 0.00000000, -170.48022461, 67.69270325, -112.42102814, -0.49962014, -0.42189234, 0.71356875, 0.25140843, -0.00170350, 0.00446116, 0.01496318, 0.00000000, 0.00000000, 0.00000000, 0.00000000
1, 0.8425, 317, 0.92737675, 0.05931504, 0.35598376, -0.18406512, -2.44800639, 2.67955995, 0.00000000, 0.00000000, 0.00000000, -170.49432373, 67.69984436, -112.43576813, -0.49964187, -0.42183918, 0.71356571, 0.25146303, -0.00216824, 0.00335123, 0.01826486, 0.00000000, 0.00000000, 0.00000000, 0.00000000
1, 0.8450, 318, 0.92351913, 0.05639572, 0.35398960, -0.39653128, -2.37951756, 2.67723441, 0.00000000, 0.00000000, 0.00000000, -170.50901794, 67.70681763, -112.45058441, -0.49966058, -0.42178878, 0.71356225, 0.25152028, 0.00173557, 0.00615599, 0.02016410, 0.00000000, 0.00000000, 0.00000000, 0.00000000
1, 0.8475, 319, 0.92211986, 0.05399418, 0.34958270, -0.46767676, -2.24055600, 2.67699575, 0.00000000, 0.00000000, 0.00000000, -170.52403259, 67.71343231, -112.46556854, -0.49967647, -0.42173991, 0.71355993, 0.25157735, 0.00317866, 0.00844180, 0.02448184, 0.00000000, 0.00000000, 0.00000000, 0.00000000
1, 0.8500, 320, 0.92163092, 0.05252485, 0.35103235, -0.60938543, -2.17167020, 2.67555285, 0.00000000, 0.00000000, 0.00000000, -170.53948975, 67.71990967, -112.48062134, -0.49968997, -0.42169297, 0.71355754, 0.25163597, 0.00371045, 0.00979315, 0.02294633, 0.00000000, 0.00000000, 0.00000000, 0.00000000
1, 0.8525, 321, 0.91922122, 0.05399889, 0.34663710, -0.82201588, -1.89353502, 2.60443091, 0.00000000, 0.00000000, 0.00000000, -170.55532837, 67.72563934, -112.49550629, -0.49969757, -0.42165101, 0.71355635, 0.25169459, 0.00615806, 0.00820053, 0.02726734, 0.00000000, 0.00000000, 0.00000000, 0.00000000
1, 0.8550, 322, 0.92170030, 0.05111320, 0.34518120, -0.60929590, -1.75176942, 2.46819758, 0.00000000, 0.00000000, 0.00000000, -170.56997681, 67.73096466, -112.50967407, -0.49970567, -0.42160961, 0.71355665, 0.25174710, 0.00371420, 0.01097657, 0.02865420, 0.00000000, 0.00000000, 0.00000000, 0.00000000
1, 0.8575, 323, 0.91733617, 0.04817639, 0.34513101, -0.60948992, -1.68209028, 2.46851969, 0.00000000, 0.00000000, 0.00000000, -170.58467102, 67.73612213, -112.52391815, -0.49971271, -0.42156860, 0.71355766, 0.25179899, 0.00811243, 0.01380379, 0.02863804, 0.00000000, 0.00000000, 0.00000000, 0.00000000
1, 0.8600, 324, 0.91833091, 0.04868556, 0.34270644, -0.61013168, -1.75298703, 2.60772276, 0.00000000, 0.00000000, 0.00000000, -170.60015869, 67.74150848, -112.53902435, -0.49972001, -0.42152497, 0.71355915, 0.25185302, 0.00715333, 0.01317932, 0.03099346, 0.00000000, 0.00000000, 0.00000000, 0.00000000
1, 0.8625, 325, 0.91883105, 0.04625529, 0.34367213, -0.67902368, -1.82062745, 2.32746840, 0.00000000, 0.00000000, 0.00000000, -170.61407471, 67.74694824, -112.55222321, -0.49972937, -0.42148617, 0.71355700, 0.25190574, 0.00668913, 0.01550454, 0.02995611, 0.00000000, 0.00000000, 0.00000000, 0.00000000
1, 0.8650, 326, 0.92271501, 0.04675244, 0.34516710, -0.74910945, -1.61016059, 2.11826420, 0.00000000, 0.00000000, 0.00000000, -170.62712097, 67.75178528, -112.56427765, -0.49973589, -0.42145252, 0.71355480, 0.25195530, 0.00283712, 0.01490963, 0.02839819, 0.00000000, 0.00000000, 0.00000000, 0.00000000
1, 0.8675, 327, 0.92174190, 0.05016844, 0.34176743, -0.74907959, -1.47019339, 2.04914594, 0.00000000, 0.00000000, 0.00000000, -170.63987732, 67.75625610, -112.57603455, -0.49974063, -0.42142072, 0.71355349, 0.25200284, 0.00383979, 0.01139868, 0.03174040, 0.00000000, 0.00000000, 0.00000000, 0.00000000
1, 0.8700, 328, 0.92317140, 0.04868501, 0.34664178, -0.88992268, -1.26012313, 1.83905947, 0.00000000, 0.00000000, 0.00000000, -170.65194702, 67.76010132, -112.58666992, -0.49974194, -0.42139488, 0.71355176, 0.25204831, 0.00243569, 0.01279334, 0.02681763, 0.00000000, 0.00000000, 0.00000000, 0.00000000
1, 0.8725, 329, 0.92319161, 0.04430390, 0.34856772, -1.10152316, -1.05044937, 1.62809062, 0.00000000, 0.00000000, 0.00000000, -170.66348267, 67.76335144, -112.59616089, -0.49973923, -0.42137578, 0.71354920, 0.25209287, 0.00243694, 0.01709079, 0.02485213, 0.00000000, 0.00000000, 0.00000000, 0.00000000
1, 0.8750, 330, 0.92514682, 0.04334139, 0.34906557, -1.24339604, -0.77191752, 1.55785096, 0.00000000, 0.00000000, 0.00000000, -170.71861267, 67.79514313, -112.65471649, -0.49984944, -0.42115059, 0.71352518, 0.25231856, 0.00069159, 0.01761109, 0.02390627, 0.00000000, 0.00000000, 0.00000000, 0.00000000
1, 0.8775, 331, 0.92662030, 0.04433494, 0.34713438, -1.38340354, -0.56062961, 1.20823979, 0.00000000, 0.00000000, 0.00000000, -170.72883606, 67.79702759, -112.66200256, -0.49983880, -0.42114377, 0.71352255, 0.25235844, -0.00076950, 0.01654616, 0.02581853, 0.00000000, 0.00000000, 0.00000000, 0.00000000
1, 0.8800, 332, 0.92807502, 0.04531388, 0.34715110, -1.45351923, -0.49012950, 1.06815434, 0.00000000, 0.00000000, 0.00000000, -170.73843384, 67.79863739, -112.66846466, -0.49982721, -0.42114028, 0.71351904, 0.25239721, -0.00221354, 0.01550040, 0.02578581, 0.00000000, 0.00000000, 0.00000000, 0.00000000
1, 0.8825, 333, 0.92904121, 0.04531231, 0.34813294, -1.59439230, -0.42002609, 0.92718631, 0.00000000, 0.00000000, 0.00000000, -170.74763489, 67.80007172, -112.67407227, -0.49981397, -0.42114091, 0.71351421, 0.25243601, -0.00317031, 0.01543853, 0.02479128, 0.00000000, 0.00000000, 0.00000000, 0.00000000
1, 0.8850, 334, 0.92903513, 0.04335338, 0.35055807, -1.66489589, -0.21016794, 0.78774494, 0.00000000, 0.00000000, 0.00000000, -170.75633240, 67.80091095, -112.67898560, -0.49979761, -0.42114565, 0.71350998, 0.25247246, -0.00315869, 0.01733853, 0.02236205, 0.00000000, 0.00000000, 0.00000000, 0.00000000
1, 0.8875, 335, 0.92901772, 0.04529404, 0.35056785, -1.66525412, 0.06915731, 0.71927059, 0.00000000, 0.00000000, 0.00000000, -170.76492310, 67.80103302, -112.68376923, -0.49977723, -0.42115292, 0.71350813, 0.25250557, -0.00314045, 0.01534169, 0.02235943, 0.00000000, 0.00000000, 0.00000000, 0.00000000
1, 0.8900, 336, 0.93191671, 0.04577814, 0.35302892, -1.80654490, 0.13865186, 0.64806509, 0.00000000, 0.00000000, 0.00000000, -170.77348328, 67.80094147, -112.68815613, -0.49975491, -0.42116332, 0.71350563, 0.25253949, -0.00604010, 0.01480206, 0.01990876, 0.00000000, 0.00000000, 0.00000000, 0.00000000
1, 0.8925, 337, 0.93238205, 0.04722920, 0.35401416, -2.01939917, 0.34649917, 0.64638352, 0.00000000, 0.00000000, 0.00000000, -170.78277588, 67.80035400, -112.69272614, -0.49972746, -0.42117724, 0.71350425, 0.25257480, -0.00650931, 0.01329207, 0.01894287, 0.00000000, 0.00000000, 0.00000000, 0.00000000
1, 0.8950, 338, 0.93430942, 0.04673358, 0.35694942, -2.22983575, 0.13809825, 0.43348229, 0.00000000, 0.00000000, 0.00000000, -170.79110718, 67.80017090, -112.69570160, -0.49970242, -0.42119560, 0.71349746, 0.25261298, -0.00843787, 0.01373389, 0.01601899, 0.00000000, 0.00000000, 0.00000000, 0.00000000
1, 0.8975, 339, 0.93477839, 0.04672183, 0.35890126, -2.37232018, 0.48570043, 0.43332738, 0.00000000, 0.00000000, 0.00000000, -170.80014038, 67.79913330, -112.69905090, -0.49967062, -0.42121735, 0.71349365, 0.25265014, -0.00891370, 0.01368949, 0.01409313, 0.00000000, 0.00000000, 0.00000000, 0.00000000
1, 0.9000, 340, 0.93573594, 0.04769060, 0.35988802, -2.51380539, 0.62487406, 0.36244392, 0.00000000, 0.00000000, 0.00000000, -170.80921936, 67.79776001, -112.70206451, -0.49963582, -0.42124259, 0.71348995, 0.25268748, -0.00988031, 0.01266521, 0.01313827, 0.00000000, 0.00000000, 0.00000000, 0.00000000
1, 0.9025, 341, 0.93622446, 0.04867110, 0.35892287, -2.65490222, 0.62468952, 0.29091629, 0.00000000, 0.00000000, 0.00000000, -170.81822205, 67.79631805, -112.70462036, -0.49960008, -0.42127046, 0.71348476, 0.25272623, -0.01037830, 0.01162978, 0.01413560, 0.00000000, 0.00000000, 0.00000000, 0.00000000
1, 0.9050, 342, 0.93766075, 0.05012424, 0.36040303, -2.79558110, 0.62511384, 0.14962620, 0.00000000, 0.00000000, 0.00000000, -170.82672119, 67.79484558, -112.70624542, -0.49956384, -0.42130205, 0.71347749, 0.25276563, -0.01182431, 0.01012512, 0.01268801, 0.00000000, 0.00000000, 0.00000000, 0.00000000
1, 0.9075, 343, 0.93863744, 0.05159644, 0.35895726, -2.86592054, 0.62532592, 0.07898115, 0.00000000, 0.00000000, 0.00000000, -170.83499146, 67.79332733, -112.70742798, -0.49952731, -0.42133552, 0.71346927, 0.25280535, -0.01281101, 0.00860303, 0.01416665, 0.00000000, 0.00000000, 0.00000000, 0.00000000
1, 0.9100, 344, 0.93860382, 0.05059322, 0.36333525, -3.15036798, 0.83155906, 0.21594195, 0.00000000, 0.00000000, 0.00000000, -170.84497070, 67.79136658, -112.70970154, -0.49948421, -0.42137107, 0.71346289, 0.25284910, -0.01279032, 0.00954629, 0.00983047, 0.00000000, 0.00000000, 0.00000000, 0.00000000
1, 0.9125, 345, 0.94004011, 0.05204636, 0.36481538, -3.29288244, 1.03919423, 0.28490543, 0.00000000, 0.00000000, 0.00000000, -170.85594177, 67.78891754, -112.71266937, -0.49943617, -0.42140824, 0.71345866, 0.25289389, -0.01424277, 0.00802802, 0.00840104, 0.00000000, 0.00000000, 0.00000000, 0.00000000
1, 0.9150, 346, 0.93856800, 0.05300809, 0.36480844, -3.43462133, 0.96811295, 0.35258076, 0.00000000, 0.00000000, 0.00000000, -170.86759949, 67.78665924, -112.71597290, -0.49938762, -0.42144558, 0.71345353, 0.25294232, -0.01278556, 0.00699611, 0.00845602, 0.00000000, 0.00000000, 0.00000000, 0.00000000
1, 0.9175, 347, 0.93906051, 0.05301461, 0.36432537, -3.57613611, 0.96731961, 0.35081562, 0.00000000, 0.00000000, 0.00000000, -170.87960815, 67.78440857, -112.71928406, -0.49933776, -0.42148441, 0.71344757, 0.25299293, -0.01329297, 0.00691717, 0.00898749, 0.00000000, 0.00000000, 0.00000000, 0.00000000
1, 0.9200, 348, 0.94052285, 0.05155675, 0.36579084, -3.64814734, 0.96509659, 0.55922031, 0.00000000, 0.00000000, 0.00000000, -170.89303589, 67.78223419, -112.72395325, -0.49928609, -0.42152080, 0.71344310, 0.25304693, -0.01476944, 0.00829296, 0.00757060, 0.00000000, 0.00000000, 0.00000000, 0.00000000
1, 0.9225, 349, 0.94049966, 0.05202731, 0.36774123, -3.71912861, 0.89441192, 0.62777823, 0.00000000, 0.00000000, 0.00000000, -170.90701294, 67.78028870, -112.72898102, -0.49923444, -0.42155641, 0.71343803, 0.25310341, -0.01475930, 0.00773650, 0.00566605, 0.00000000, 0.00000000, 0.00000000, 0.00000000
1, 0.9250, 350, 0.93903738, 0.05348516, 0.36627576, -3.79027367, 1.03337359, 0.62753975, 0.00000000, 0.00000000, 0.00000000, -170.93156433, 67.78769684, -112.74601746, -0.49922466, -0.42153394, 0.71341884, 0.25321415, -0.01324809, 0.00609964, 0.00703886, 0.00000000, 0.00000000, 0.00000000, 0.00000000
1, 0.9275, 351, 0.93952882, 0.05202523, 0.36724633, -3.79107976, 1.17212284, 0.69794631, 0.00000000, 0.00000000, 0.00000000, -170.94639587, 67.78507996, -112.75180817, -0.49916771, -0.42157084, 0.71341711, 0.25326997, -0.01375681, 0.00746963, 0.00612557, 0.00000000, 0.00000000, 0.00000000, 0.00000000
1, 0.9300, 352, 0.94048160, 0.05299033, 0.36872008, -3.72074032, 1.17191064, 0.76859134, 0.00000000, 0.00000000, 0.00000000, -170.96147156, 67.78250885, -112.75802612, -0.49911103, -0.42160589, 0.71341640, 0.25332546, -0.01472658, 0.00641288, 0.00470880, 0.00000000, 0.00000000, 0.00000000, 0.00000000
1, 0.9325, 353, 0.93950099, 0.05249212, 0.36968371, -3.72235227, 1.44940948, 0.90940452, 0.00000000, 0.00000000, 0.00000000, -170.97766113, 67.77925873, -112.76548004, -0.49904919, -0.42164028, 0.71341997, 0.25337997, -0.01376742, 0.00681369, 0.00381333, 0.00000000, 0.00000000, 0.00000000, 0.00000000
1, 0.9350, 354, 0.93900448, 0.05345958, 0.36968467, -3.79310942, 1.44901288, 0.90852195, 0.00000000, 0.00000000, 0.00000000, -170.99401855, 67.77603912, -112.77291107, -0.49898669, -0.42167547, 0.71342313, 0.25343558, -0.01329214, 0.00574770, 0.00388074, 0.00000000, 0.00000000, 0.00000000, 0.00000000
1, 0.9375, 355, 0.93801987, 0.05393536, 0.37016618, -3.79433322, 1.58715355, 1.04869092, 0.00000000, 0.00000000, 0.00000000, -171.01136780, 67.77254486, -112.78140259, -0.49892128, -0.42170921, 0.71342909, 0.25349146, -0.01233059, 0.00516768, 0.00347313, 0.00000000, 0.00000000, 0.00000000, 0.00000000
1, 0.9400, 356, 0.93752629, 0.05246238, 0.37210286, -3.72376990, 1.65722919, 1.04989552, 0.00000000, 0.00000000, 0.00000000, -171.02861023, 67.76885223, -112.78995514, -0.49885541, -0.42174259, 0.71343619, 0.25354561, -0.01186139, 0.00653754, 0.00161299, 0.00000000, 0.00000000, 0.00000000, 0.00000000
1, 0.9425, 357, 0.93606794, 0.05294625, 0.37111950, -3.72441196, 1.58633256, 1.18909836, 0.00000000, 0.00000000, 0.00000000, -171.04661560, 67.76540375, -112.79934692, -0.49878988, -0.42177337, 0.71344376, 0.25360194, -0.01042581, 0.00594490, 0.00266999, 0.00000000, 0.00000000, 0.00000000, 0.00000000
1, 0.9450, 358, 0.93703490, 0.05392231, 0.37113228, -3.65343046, 1.65701711, 1.12054062, 0.00000000, 0.00000000, 0.00000000, -171.06410217, 67.76171875, -112.80837250, -0.49872428, -0.42180488, 0.71345192, 0.25365576, -0.01141691, 0.00486394, 0.00273347, 0.00000000, 0.00000000, 0.00000000, 0.00000000
1, 0.9475, 359, 0.93557578, 0.05342855, 0.37111798, -3.58212090, 1.30840945, 1.18957531, 0.00000000, 0.00000000, 0.00000000, -171.08146667, 67.75897217, -112.81745911, -0.49866438, -0.42183259, 0.71345723, 0.25371242, -0.00997615, 0.00525130, 0.00280982, 0.00000000, 0.00000000, 0.00000000, 0.00000000
1, 0.9500, 360, 0.93510205, 0.05343664, 0.36965311, -3.44118810, 1.51824021, 1.19230664, 0.00000000, 0.00000000, 0.00000000, -171.09870911, 67.75567627, -112.82678986, -0.49860248, -0.42185986, 0.71346563, 0.25376499, -0.00952417, 0.00513890, 0.00434473, 0.00000000, 0.00000000, 0.00000000, 0.00000000
1, 0.9525, 361, 0.93411243, 0.05341994, 0.37110615, -3.15799427, 1.31018066, 1.26463330, 0.00000000, 0.00000000, 0.00000000, -171.11547852, 67.75295258, -112.83637238, -0.49854603, -0.42188179, 0.71347404, 0.25381583, -0.00855255, 0.00505302, 0.00295264, 0.00000000, 0.00000000, 0.00000000, 0.00000000
1, 0.9550, 362, 0.93364853, 0.05392416, 0.36818275, -3.01606178, 1.31158280, 1.19663596, 0.00000000, 0.00000000, 0.00000000, -171.13146973, 67.75016785, -112.84550476, -0.49849126, -0.42190325, 0.71348262, 0.25386372, -0.00810707, 0.00445128, 0.00593668, 0.00000000, 0.00000000, 0.00000000, 0.00000000
1, 0.9575, 363, 0.93167883, 0.05438689, 0.36963037, -2.87254691, 0.89551914, 1.05694377, 0.00000000, 0.00000000, 0.00000000, -171.14587402, 67.74835205, -112.85332489, -0.49844503, -0.42192298, 0.71348619, 0.25391167, -0.00614935, 0.00389897, 0.00453255, 0.00000000, 0.00000000, 0.00000000, 0.00000000
1, 0.9600, 364, 0.92968380, 0.05873826, 0.37012357, -2.73045015, 0.68727517, 1.05774283, 0.00000000, 0.00000000, 0.00000000, -171.15972900, 67.74707031, -112.86091614, -0.49840334, -0.42194003, 0.71348828, 0.25395936, -0.00416279, -0.00053969, 0.00407407, 0.00000000, 0.00000000, 0.00000000, 0.00000000
1, 0.9625, 365, 0.92919207, 0.05970937, 0.36963755, -2.58854723, 0.54871041, 1.05886388, 0.00000000, 0.00000000, 0.00000000, -171.17312622, 67.74612427, -112.86838531, -0.49836507, -0.42195472, 0.71348965, 0.25400612, -0.00367737, -0.00159587, 0.00458887, 0.00000000, 0.00000000, 0.00000000, 0.00000000
1, 0.9650, 366, 0.92919207, 0.05970937, 0.36963755, -2.58854723, 0.54871041, 1.05886388, 0.00000000, 0.00000000, 0.00000000, -171.18649292, 67.74516296, -112.87584686, -0.49832681, -0.42196941, 0.71349102, 0.25405288, -0.00368369, -0.00168092, 0.00461757, 0.00000000, 0.00000000, 0.00000000, 0.00000000
1, 0.9675, 367, 0.92819911, 0.06164430, 0.36963943, -2.16103339, -0.21416223, 0.92109191, 0.00000000, 0.00000000, 0.00000000, -171.19726562, 67.74604034, -112.88164520, -0.49830514, -0.42197737, 0.71348518, 0.25409850, -0.00268495, -0.00368835, 0.00461245, 0.00000000, 0.00000000, 0.00000000, 0.00000000
1, 0.9700, 368, 0.92819911, 0.06164430, 0.36963943, -2.16103339, -0.21416223, 0.92109191, 0.00000000, 0.00000000, 0.00000000, -171.20802307, 67.74694061, -112.88743591, -0.49828348, -0.42198533, 0.71347934, 0.25414413, -0.00267899, -0.00376083, 0.00460926, 0.00000000, 0.00000000, 0.00000000, 0.00000000
1, 0.9725, 369, 0.92721522, 0.06309772, 0.36915186, -2.01580238, -1.39730477, 0.84761977, 0.00000000, 0.00000000, 0.00000000, -171.21687317, 67.75070190, -112.89155579, -0.49828196, -0.42198628, 0.71346074, 0.25419760, -0.00167024, -0.00528143, 0.00504541, 0.00000000, 0.00000000, 0.00000000, 0.00000000
1, 0.9750, 370, 0.92721522, 0.06309772, 0.36915186, -2.01580238, -1.39730477, 0.84761977, 0.00000000, 0.00000000, 0.00000000, -171.20947266, 67.75897980, -112.87844086, -0.49832833, -0.42200968, 0.71339804, 0.25424406, -0.00161552, -0.00525342, 0.00490588, 0.00000000, 0.00000000, 0.00000000, 0.00000000
1, 0.9775, 371, 0.92866993, 0.06407666, 0.36916861, -1.72960889, -2.23064971, 0.70776051, 0.00000000, 0.00000000, 0.00000000, -171.21597290, 67.76477051, -112.88081360, -0.49834320, -0.42200509, 0.71337068, 0.25429922, -0.00303203, -0.00628916, 0.00480333, 0.00000000, 0.00000000, 0.00000000, 0.00000000
1, 0.9800, 372, 0.92866993, 0.06407666, 0.36916861, -1.72960889, -2.23064971, 0.70776051, 0.00000000, 0.00000000, 0.00000000, -171.22250366, 67.77056122, -112.88318634, -0.49835807, -0.42200050, 0.71334332, 0.25435439, -0.00299376, -0.00634596, 0.00471762, 0.00000000, 0.00000000, 0.00000000, 0.00000000
1, 1.0125, 373, 0.93707883, 0.06910130, 0.35270265, 0.45400491, -2.44261003, 2.47821569, 0.00000000, 0.00000000, 0.00000000, -171.31130981, 67.87384033, -112.96282196, -0.49880874, -0.42156678, 0.71305263, 0.25500464, -0.01072222, -0.01220239, 0.01962239, 0.00000000, 0.00000000, 0.00000000, 0.00000000
1, 1.0150, 374, 0.93755758, 0.06958568, 0.35319605, 0.59307218, -2.16553545, 2.76031899, 0.00000000, 0.00000000, 0.00000000, -171.32460022, 67.88024902, -112.97877502, -0.49883252, -0.42150533, 0.71305776, 0.25504538, -0.01115889, -0.01278872, 0.01903993, 0.00000000, 0.00000000, 0.00000000, 0.00000000
1, 1.0175, 375, 0.93853790, 0.06959508, 0.35271695, 0.52131474, -1.95750391, 2.83016491, 0.00000000, 0.00000000, 0.00000000, -171.33868408, 67.88612366, -112.99538422, -0.49885204, -0.42144477, 0.71306539, 0.25508606, -0.01210046, -0.01290403, 0.01943862, 0.00000000, 0.00000000, 0.00000000, 0.00000000
1, 1.0200, 376, 0.93903005, 0.06911277, 0.35271844, 0.66041183, -1.54046249, 3.04314971, 0.00000000, 0.00000000, 0.00000000, -171.35412598, 67.89109039, -113.01383209, -0.49886510, -0.42138159, 0.71308023, 0.25512305, -0.01256007, -0.01253401, 0.01937327, 0.00000000, 0.00000000, 0.00000000, 0.00000000
1, 1.0225, 377, 0.93855602, 0.06863204, 0.35173807, 0.72958720, -1.12259984, 3.11572719, 0.00000000, 0.00000000, 0.00000000, -171.37022400, 67.89501953, -113.03317261, -0.49887192, -0.42131895, 0.71310073, 0.25515592, -0.01206023, -0.01216744, 0.02030653, 0.00000000, 0.00000000, 0.00000000, 0.00000000
1, 1.0250, 378, 0.93710160, 0.06814193, 0.35123682, 0.79795671, -0.56598812, 3.25871086, 0.00000000, 0.00000000, 0.00000000, -171.35054016, 67.91770935, -113.01560974, -0.49903712, -0.42127141, 0.71299493, 0.25520718, -0.01045686, -0.01160467, 0.02042577, 0.00000000, 0.00000000, 0.00000000, 0.00000000
1, 1.0275, 379, 0.93714929, 0.06915611, 0.34539789, 0.65396452, -0.43046713, 3.60640216, 0.00000000, 0.00000000, 0.00000000, -171.37046814, 67.92014313, -113.03887939, -0.49902976, -0.42120582, 0.71302700, 0.25524023, -0.01048863, -0.01275400, 0.02624562, 0.00000000, 0.00000000, 0.00000000, 0.00000000
1, 1.0300, 380, 0.93771446, 0.06579936, 0.34051493, 0.79406142, -0.22185417, 3.74865842, 0.00000000, 0.00000000, 0.00000000, -171.39111328, 67.92208099, -113.06330872, -0.49901965, -0.42113763, 0.71306342, 0.25527072, -0.01104105, -0.00953589, 0.03111766, 0.00000000, 0.00000000, 0.00000000, 0.00000000
1, 1.0325, 381, 0.93923247, 0.06340770, 0.33710566, 1.00555742, 0.05805229, 3.75259423, 0.00000000, 0.00000000, 0.00000000, -171.41152954, 67.92334747, -113.08804321, -0.49900711, -0.42106864, 0.71310413, 0.25529540, -0.01255077, -0.00727963, 0.03452674, 0.00000000, 0.00000000, 0.00000000, 0.00000000
1, 1.0350, 382, 0.93871719, 0.06436056, 0.33905450, 1.14604247, 0.12730712, 3.89420676, 0.00000000, 0.00000000, 0.00000000, -171.43251038, 67.92447662, -113.11376953, -0.49899396, -0.42099628, 0.71314764, 0.25531879, -0.01202804, -0.00837133, 0.03258023, 0.00000000, 0.00000000, 0.00000000, 0.00000000
1, 1.0375, 383, 0.93824780, 0.06388348, 0.33758718, 1.28507984, 0.26441464, 4.24542809, 0.00000000, 0.00000000, 0.00000000, -171.45539856, 67.92540741, -113.14196014, -0.49897802, -0.42091772, 0.71319664, 0.25534257, -0.01155257, -0.00804503, 0.03405506, 0.00000000, 0.00000000, 0.00000000, 0.00000000
1, 1.0400, 384, 0.93583161, 0.06290977, 0.33610162, 1.70843017, 0.54490232, 4.32177448, 0.00000000, 0.00000000, 0.00000000, -171.47798157, 67.92568207, -113.17092133, -0.49896115, -0.42083493, 0.71325177, 0.25535804, -0.00913459, -0.00721836, 0.03555856, 0.00000000, 0.00000000, 0.00000000, 0.00000000
1, 1.0425, 385, 0.93632770, 0.06145349, 0.33658519, 1.99126554, 0.61616802, 4.32562685, 0.00000000, 0.00000000, 0.00000000, -171.49993896, 67.92575836, -113.19998932, -0.49894571, -0.42074937, 0.71330929, 0.25536847, -0.00963021, -0.00590470, 0.03509513, 0.00000000, 0.00000000, 0.00000000, 0.00000000
1, 1.0450, 386, 0.93632770, 0.06145349, 0.33658519, 2.06041145, 0.89406353, 4.46732187, 0.00000000, 0.00000000, 0.00000000, -171.52284241, 67.92518616, -113.23026276, -0.49892583, -0.42066237, 0.71337152, 0.25537682, -0.00963390, -0.00605192, 0.03512624, 0.00000000, 0.00000000, 0.00000000, 0.00000000
1, 1.0475, 387, 0.93632805, 0.06194230, 0.33610067, 2.13039303, 1.17317653, 4.46949291, 0.00000000, 0.00000000, 0.00000000, -171.54583740, 67.92392731, -113.26081848, -0.49890220, -0.42057616, 0.71343714, 0.25538155, -0.00964254, -0.00668695, 0.03565302, 0.00000000, 0.00000000, 0.00000000, 0.00000000
1, 1.0500, 388, 0.93681663, 0.06292281, 0.33513555, 2.20076203, 1.31293142, 4.47101974, 0.00000000, 0.00000000, 0.00000000, -171.56878662, 67.92231750, -113.29152679, -0.49887705, -0.42048991, 0.71350473, 0.25538391, -0.01014167, -0.00781254, 0.03666595, 0.00000000, 0.00000000, 0.00000000, 0.00000000
1, 1.0525, 389, 0.93681628, 0.06243399, 0.33562008, 2.26951957, 1.73018515, 4.61335945, 0.00000000, 0.00000000, 0.00000000, -171.59280396, 67.91973877, -113.32357025, -0.49884525, -0.42040300, 0.71357852, 0.25538293, -0.01015824, -0.00747347, 0.03624591, 0.00000000, 0.00000000, 0.00000000, 0.00000000
1, 1.0550, 390, 0.93388873, 0.06143915, 0.33656546, 2.27125096, 2.01255465, 4.19607258, 0.00000000, 0.00000000, 0.00000000, -171.61450195, 67.91629028, -113.35311127, -0.49881139, -0.42032418, 0.71365154, 0.25537479, -0.00725335, -0.00661140, 0.03537634, 0.00000000, 0.00000000, 0.00000000, 0.00000000
1, 1.0575, 391, 0.93635082, 0.06098294, 0.33463481, 2.27066898, 2.22159195, 4.19703865, 0.00000000, 0.00000000, 0.00000000, -171.63639832, 67.91231537, -113.38288116, -0.49877423, -0.42024648, 0.71372682, 0.25536475, -0.00974149, -0.00628802, 0.03739139, 0.00000000, 0.00000000, 0.00000000, 0.00000000
1, 1.0600, 392, 0.93635553, 0.06098659, 0.33414784, 2.26966882, 2.43002033, 4.26776743, 0.00000000, 0.00000000, 0.00000000, -171.65892029, 67.90786743, -113.41328430, -0.49873346, -0.42016891, 0.71380508, 0.25535360, -0.00977540, -0.00642743, 0.03797121, 0.00000000, 0.00000000, 0.00000000, 0.00000000
1, 1.0625, 393, 0.93683797, 0.06000816, 0.33560783, 2.12782598, 2.84851909, 4.12840986, 0.00000000, 0.00000000, 0.00000000, -171.68130493, 67.90232086, -113.44319153, -0.49868560, -0.42009732, 0.71388578, 0.25533926, -0.01029426, -0.00558135, 0.03662137, 0.00000000, 0.00000000, 0.00000000, 0.00000000
1, 1.0650, 394, 0.93731201, 0.06048889, 0.33658820, 2.12785578, 2.98848605, 4.05929136, 0.00000000, 0.00000000, 0.00000000, -171.70338440, 67.89638519, -113.47276306, -0.49863586, -0.42002755, 0.71396732, 0.25532287, -0.01080728, -0.00619168, 0.03575677, 0.00000000, 0.00000000, 0.00000000, 0.00000000
