SensorId, TimeStamp (s), FrameNumber, AccX (g), AccY (g), AccZ (g), GyroX (deg/s), GyroY (deg/s), GyroZ (deg/s), MagX (uT), MagY (uT), MagZ (uT), EulerX (deg), EulerY (deg), EulerZ (deg), QuatW, QuatX, QuatY, QuatZ, LinAccX (g), LinAccY (g), LinAccZ (g), Pressure (kPa), Altitude (m), Temperature (degC), HeaveMotion (m)
1, -0.0000, 0, 0.00922383, 0.00476793, -1.00079501, 0.11939896, 0.02172391, 0.08443955, 0.00000000, 0.00000000, 0.00000000, -0.28800395, 0.47143936, -10.76652241, 0.99557883, 0.00211623, -0.00433170, 0.09380605, -0.00099575, 0.00025849, 0.00084150, 0.00000000, 0.00000000, 0.00000000, 0.00000000
1, 0.0025, 1, 0.00777381, 0.00379265, -1.00129867, -0.02153377, -0.18810673, 0.08170827, 0.00000000, 0.00000000, 0.00000000, -0.28805614, 0.47097003, -10.76631737, 0.99557900, 0.00211707, -0.00432766, 0.09380426, 0.00044608, 0.00123469, 0.00134510, 0.00000000, 0.00000000, 0.00000000, 0.00000000
1, 0.0050, 2, 0.00971127, 0.00428198, -1.00030661, 0.04986537, -0.11681335, -0.05661205, 0.00000000, 0.00000000, 0.00000000, -0.28793263, 0.47067726, -10.76645660, 0.99557889, 0.00211623, -0.00432502, 0.09380549, -0.00149649, 0.00074320, 0.00035298, 0.00000000, 0.00000000, 0.00000000, 0.00000000
1, 0.0075, 3, 0.00921984, 0.00574192, -1.00127709, 0.04967136, -0.04713426, -0.05629000, 0.00000000, 0.00000000, 0.00000000, -0.28780958, 0.47055879, -10.76659679, 0.99557877, 0.00211526, -0.00432389, 0.09380671, -0.00100714, -0.00071888, 0.00132346, 0.00000000, 0.00000000, 0.00000000, 0.00000000
1, 0.0100, 4, 0.00874578, 0.00526119, -1.00225759, -0.02169793, 0.02153937, 0.01291194, 0.00000000, 0.00000000, 0.00000000, -0.28786361, 0.47061267, -10.76656532, 0.99557889, 0.00211568, -0.00432441, 0.09380645, -0.00053214, -0.00023721, 0.00230390, 0.00000000, 0.00000000, 0.00000000, 0.00000000
1, 0.0125, 5, 0.00970693, 0.00476715, -1.00030410, -0.02130990, -0.11781882, 0.01226785, 0.00000000, 0.00000000, 0.00000000, -0.28791663, 0.47031829, -10.76653290, 0.99557889, 0.00211639, -0.00432189, 0.09380617, -0.00149842, 0.00025776, 0.00035048, 0.00000000, 0.00000000, 0.00000000, 0.00000000
1, 0.0150, 6, 0.00923251, 0.00379760, -1.00079989, 0.05028325, -0.11620455, -0.12637451, 0.00000000, 0.00000000, 0.00000000, -0.28779352, 0.47002614, -10.76684761, 0.99557865, 0.00211554, -0.00431926, 0.09380891, -0.00102910, 0.00122515, 0.00084621, 0.00000000, 0.00000000, 0.00000000, 0.00000000
1, 0.0175, 7, 0.00874578, 0.00526119, -1.00225759, -0.02089202, -0.11721002, -0.05749462, 0.00000000, 0.00000000, 0.00000000, -0.28784683, 0.46973228, -10.76698971, 0.99557853, 0.00211624, -0.00431675, 0.09381016, -0.00054750, -0.00023751, 0.00230384, 0.00000000, 0.00000000, 0.00000000, 0.00000000
1, 0.0200, 8, 0.01018135, 0.00573669, -0.99980825, -0.09245531, 0.02114270, 0.01202937, 0.00000000, 0.00000000, 0.00000000, -0.28807777, 0.46978527, -10.76695919, 0.99557853, 0.00211821, -0.00431740, 0.09380989, -0.00198214, -0.00070898, -0.00014549, 0.00000000, 0.00000000, 0.00000000, 0.00000000
1, 0.0225, 9, 0.00924660, 0.00380856, -1.00226092, -0.02130990, -0.11781882, 0.01226785, 0.00000000, 0.00000000, 0.00000000, -0.28813079, 0.46949083, -10.76692867, 0.99557865, 0.00211891, -0.00431489, 0.09380963, -0.00105254, 0.00122008, 0.00230718, 0.00000000, 0.00000000, 0.00000000, 0.00000000
1, 0.0250, 10, 0.00873603, 0.00476506, -1.00079894, -0.02192180, -0.04874853, 0.08235236, 0.00000000, 0.00000000, 0.00000000, -0.28818393, 0.46936986, -10.76672173, 0.99557883, 0.00211948, -0.00431387, 0.09380783, -0.00054407, 0.00026450, 0.00084519, 0.00000000, 0.00000000, 0.00000000, 0.00000000
1, 0.0275, 11, 0.00970223, 0.00476349, -0.99981707, 0.04925347, -0.04774306, 0.01347246, 0.00000000, 0.00000000, 0.00000000, -0.28806055, 0.46925074, -10.76668835, 0.99557883, 0.00211851, -0.00431274, 0.09380754, -0.00151235, 0.00026392, -0.00013679, 0.00000000, 0.00000000, 0.00000000, 0.00000000
1, 0.0300, 12, 0.00921443, 0.00476062, -0.99982101, -0.02069800, -0.18688914, -0.05781667, 0.00000000, 0.00000000, 0.00000000, -0.28811347, 0.46878272, -10.76683044, 0.99557871, 0.00211934, -0.00430872, 0.09380879, -0.00103272, 0.00026771, -0.00013286, 0.00000000, 0.00000000, 0.00000000, 0.00000000
1, 0.0325, 13, 0.00969355, 0.00573382, -0.99981219, -0.02111588, -0.18749793, 0.01194580, 0.00000000, 0.00000000, 0.00000000, -0.28816599, 0.46831417, -10.76679993, 0.99557871, 0.00212018, -0.00430469, 0.09380852, -0.00152002, -0.00070457, -0.00014180, 0.00000000, 0.00000000, 0.00000000, 0.00000000
1, 0.0350, 14, 0.00871723, 0.00475045, -0.99885100, -0.02479200, -0.11454318, -0.05371516, 0.00000000, 0.00000000, 0.00000000, -0.28822908, 0.46802714, -10.76693249, 0.99557859, 0.00212096, -0.00430225, 0.09380968, -0.00054871, 0.00027991, -0.00110298, 0.00000000, 0.00000000, 0.00000000, 0.00000000
1, 0.0375, 15, 0.01068181, 0.00379524, -0.99932712, -0.02540390, -0.04547287, 0.01636935, 0.00000000, 0.00000000, 0.00000000, -0.27723351, 0.49051619, -10.76565552, 0.99557912, 0.00200707, -0.00448861, 0.09379845, -0.00212080, 0.00104320, -0.00062454, 0.00000000, 0.00000000, 0.00000000, 0.00000000
1, 0.0400, 16, 0.00870385, 0.00571713, -0.99835908, -0.02501586, -0.18483108, 0.01572526, 0.00000000, 0.00000000, 0.00000000, -0.27729571, 0.49005425, -10.76561451, 0.99557918, 0.00200799, -0.00448465, 0.09379810, -0.00015090, -0.00087760, -0.00159264, 0.00000000, 0.00000000, 0.00000000, 0.00000000
1, 0.0425, 17, 0.00870891, 0.00620960, -0.99933070, -0.09574339, -0.04526074, -0.05427569, 0.00000000, 0.00000000, 0.00000000, -0.27753624, 0.48994040, -10.76575089, 0.99557906, 0.00201017, -0.00448386, 0.09379927, -0.00015794, -0.00136588, -0.00062102, 0.00000000, 0.00000000, 0.00000000, 0.00000000
1, 0.0450, 18, 0.00872627, 0.00426894, -0.99934047, -0.02518003, 0.02481503, -0.05307107, 0.00000000, 0.00000000, 0.00000000, -0.27760035, 0.49000177, -10.76588154, 0.99557894, 0.00201067, -0.00448445, 0.09380043, -0.00017424, 0.00057591, -0.00061119, 0.00000000, 0.00000000, 0.00000000, 0.00000000
1, 0.0475, 19, 0.00874542, 0.00477237, -1.00177288, -0.09554937, -0.11493985, -0.05459773, 0.00000000, 0.00000000, 0.00000000, -0.27784038, 0.48971379, -10.76601791, 0.99557883, 0.00201298, -0.00448214, 0.09380160, -0.00019841, 0.00007666, 0.00182122, 0.00000000, 0.00000000, 0.00000000, 0.00000000
1, 0.0500, 20, 0.00826232, 0.00477316, -1.00226390, -0.02459798, -0.18422228, -0.05403721, 0.00000000, 0.00000000, 0.00000000, -0.27790299, 0.48925248, -10.76615047, 0.99557871, 0.00201390, -0.00447819, 0.09380276, 0.00027664, 0.00007697, 0.00231206, 0.00000000, 0.00000000, 0.00000000, 0.00000000
1, 0.0525, 21, 0.00777488, 0.00525911, -1.00275242, -0.02518003, 0.02481503, -0.05307107, 0.00000000, 0.00000000, 0.00000000, -0.27796710, 0.48931384, -10.76628399, 0.99557859, 0.00201440, -0.00447878, 0.09380391, 0.00076515, -0.00040786, 0.00280064, 0.00000000, 0.00000000, 0.00000000, 0.00000000
1, 0.0550, 22, 0.00824460, 0.00622500, -1.00176954, -0.02537405, 0.09449412, -0.05274903, 0.00000000, 0.00000000, 0.00000000, -0.27803168, 0.48954949, -10.76641750, 0.99557847, 0.00201476, -0.00448088, 0.09380506, 0.00029954, -0.00137263, 0.00181782, 0.00000000, 0.00000000, 0.00000000, 0.00000000
1, 0.0575, 23, 0.00874542, 0.00477237, -1.00177288, -0.02418010, -0.18361348, -0.12379968, 0.00000000, 0.00000000, 0.00000000, -0.27809477, 0.48908889, -10.76672459, 0.99557823, 0.00201568, -0.00447693, 0.09380774, -0.00020932, 0.00008110, 0.00182110, 0.00000000, 0.00000000, 0.00000000, 0.00000000
1, 0.0600, 24, 0.00825364, 0.00574349, -1.00225902, 0.11572284, 0.09467866, 0.01877858, 0.00000000, 0.00000000, 0.00000000, -0.27780506, 0.48932576, -10.76667881, 0.99557829, 0.00201297, -0.00447875, 0.09380735, 0.00028660, -0.00089507, 0.00230718, 0.00000000, 0.00000000, 0.00000000, 0.00000000
1, 0.0625, 25, 0.00827534, 0.00331766, -1.00227129, 0.11569300, -0.04528834, 0.08789696, 0.00000000, 0.00000000, 0.00000000, -0.27751395, 0.48921353, -10.76645756, 0.99557847, 0.00201054, -0.00447754, 0.09380545, 0.00026294, 0.00152568, 0.00231946, 0.00000000, 0.00000000, 0.00000000, 0.00000000
1, 0.0650, 26, 0.00726323, 0.00474915, -0.99983674, 0.04574152, -0.18443441, 0.01660783, 0.00000000, 0.00000000, 0.00000000, -0.27739921, 0.48875266, -10.76641369, 0.99557853, 0.00200992, -0.00447344, 0.09380508, 0.00126700, 0.00009218, -0.00011522, 0.00000000, 0.00000000, 0.00000000, 0.00000000
1, 0.0675, 27, 0.00824787, 0.00427338, -1.00031841, -0.02498602, -0.04486407, -0.05339312, 0.00000000, 0.00000000, 0.00000000, -0.27746281, 0.48863980, -10.76654816, 0.99557841, 0.00201056, -0.00447251, 0.09380624, 0.00028040, 0.00056907, 0.00036645, 0.00000000, 0.00000000, 0.00000000, 0.00000000
1, 0.0700, 28, 0.00924190, 0.00380491, -1.00177383, 0.04496546, 0.09428199, 0.01789601, 0.00000000, 0.00000000, 0.00000000, -0.27735004, 0.48887554, -10.76650429, 0.99557847, 0.00200939, -0.00447447, 0.09380586, -0.00070952, 0.00103557, 0.00182200, 0.00000000, 0.00000000, 0.00000000, 0.00000000
1, 0.0725, 29, 0.00776947, 0.00427782, -1.00129628, 0.04557735, 0.02521170, -0.05218850, 0.00000000, 0.00000000, 0.00000000, -0.27723724, 0.48893797, -10.76663494, 0.99557835, 0.00200835, -0.00447492, 0.09380700, 0.00076401, 0.00056069, 0.00134432, 0.00000000, 0.00000000, 0.00000000, 0.00000000
1, 0.0750, 30, 0.00824317, 0.00426972, -0.99983138, 0.04515947, 0.02460290, 0.01757397, 0.00000000, 0.00000000, 0.00000000, -0.27712399, 0.48899961, -10.76659203, 0.99557841, 0.00200732, -0.00447536, 0.09380662, 0.00029138, 0.00056681, -0.00012052, 0.00000000, 0.00000000, 0.00000000, 0.00000000
1, 0.0775, 31, 0.00823955, 0.00573253, -1.00079799, -0.02520988, -0.11515198, 0.01604731, 0.00000000, 0.00000000, 0.00000000, -0.27718660, 0.48871189, -10.76654911, 0.99557847, 0.00200810, -0.00447291, 0.09380627, 0.00028998, -0.00089490, 0.00084603, 0.00000000, 0.00000000, 0.00000000, 0.00000000
1, 0.0800, 32, 0.00824389, 0.00524736, -1.00080049, 0.11611088, -0.04467953, 0.01813449, 0.00000000, 0.00000000, 0.00000000, -0.27689597, 0.48860037, -10.76650333, 0.99557853, 0.00200567, -0.00447171, 0.09380588, 0.00028369, -0.00041481, 0.00084847, 0.00000000, 0.00000000, 0.00000000, 0.00000000
1, 0.0825, 33, 0.00678953, 0.00475724, -1.00130177, -0.02559791, 0.02420623, 0.01669140, 0.00000000, 0.00000000, 0.00000000, -0.27695957, 0.48866105, -10.76645947, 0.99557847, 0.00200618, -0.00447228, 0.09380550, 0.00173911, 0.00007642, 0.00134981, 0.00000000, 0.00000000, 0.00000000, 0.00000000
1, 0.0850, 34, 0.00631475, 0.00329888, -1.00131297, -0.02601580, 0.02359743, 0.08645387, 0.00000000, 0.00000000, 0.00000000, -0.27702281, 0.48872101, -10.76624584, 0.99557865, 0.00200668, -0.00447285, 0.09380362, 0.00221493, 0.00153588, 0.00136101, 0.00000000, 0.00000000, 0.00000000, 0.00000000
1, 0.0875, 35, 0.00823449, 0.00524005, -0.99982649, -0.02623967, -0.04669048, 0.15589429, 0.00000000, 0.00000000, 0.00000000, -0.27893692, 0.48726988, -10.76610374, 0.99557877, 0.00202451, -0.00446181, 0.09380236, 0.00026987, -0.00037188, -0.00012547, 0.00000000, 0.00000000, 0.00000000, 0.00000000
1, 0.0900, 36, 0.01019473, 0.00477001, -1.00030017, -0.09657916, -0.04647834, 0.08524925, 0.00000000, 0.00000000, 0.00000000, -0.27917656, 0.48715466, -10.76589012, 0.99557894, 0.00202669, -0.00446100, 0.09380050, -0.00169238, 0.00010234, 0.00034821, 0.00000000, 0.00000000, 0.00000000, 0.00000000
1, 0.0925, 37, 0.00726359, 0.00523797, -1.00032139, -0.02601580, 0.02359743, 0.08645387, 0.00000000, 0.00000000, 0.00000000, -0.27923974, 0.48721462, -10.76567554, 0.99557912, 0.00202720, -0.00446157, 0.09379862, 0.00123980, -0.00036451, 0.00036943, 0.00000000, 0.00000000, 0.00000000, 0.00000000
1, 0.0950, 38, 0.00972031, 0.00380047, -1.00079596, -0.02562777, -0.11576077, 0.08580977, 0.00000000, 0.00000000, 0.00000000, -0.27930197, 0.48692629, -10.76545906, 0.99557930, 0.00202799, -0.00445911, 0.09379675, -0.00122195, 0.00107407, 0.00084394, 0.00000000, 0.00000000, 0.00000000, 0.00000000
1, 0.0975, 39, 0.00727263, 0.00475646, -1.00081074, -0.02562777, -0.11576077, 0.08580977, 0.00000000, 0.00000000, 0.00000000, -0.27936426, 0.48663792, -10.76524353, 0.99557948, 0.00202877, -0.00445665, 0.09379488, 0.00122070, 0.00011917, 0.00085872, 0.00000000, 0.00000000, 0.00000000, 0.00000000
1, 0.1000, 40, 0.00823015, 0.00572522, -0.99982399, -0.02579193, 0.09388532, 0.01701344, 0.00000000, 0.00000000, 0.00000000, -0.27942836, 0.48687279, -10.76520157, 0.99557954, 0.00202914, -0.00445875, 0.09379452, 0.00026728, -0.00084847, -0.00012803, 0.00000000, 0.00000000, 0.00000000, 0.00000000
1, 0.1025, 41, 0.00774669, 0.00523719, -0.99983042, 0.04474159, 0.02399410, 0.08733644, 0.00000000, 0.00000000, 0.00000000, -0.27931467, 0.48693374, -10.76498413, 0.99557972, 0.00202811, -0.00445918, 0.09379262, 0.00075180, -0.00036242, -0.00012165, 0.00000000, 0.00000000, 0.00000000, 0.00000000
1, 0.1050, 42, 0.00727769, 0.00524893, -1.00178230, -0.02518003, 0.02481503, -0.05307107, 0.00000000, 0.00000000, 0.00000000, -0.27937874, 0.48699516, -10.76511669, 0.99557960, 0.00202861, -0.00445977, 0.09379378, 0.00122188, -0.00037305, 0.00183028, 0.00000000, 0.00000000, 0.00000000, 0.00000000
1, 0.1075, 43, 0.00727263, 0.00475646, -1.00081074, -0.02579193, 0.09388532, 0.01701344, 0.00000000, 0.00000000, 0.00000000, -0.27944285, 0.48722994, -10.76507568, 0.99557966, 0.00202898, -0.00446186, 0.09379341, 0.00123103, 0.00012054, 0.00085878, 0.00000000, 0.00000000, 0.00000000, 0.00000000
1, 0.1100, 44, 0.00874578, 0.00526119, -1.00225759, 0.04454757, 0.09367319, 0.08765848, 0.00000000, 0.00000000, 0.00000000, -0.27932969, 0.48746517, -10.76485920, 0.99557984, 0.00202781, -0.00446381, 0.09379152, -0.00023802, -0.00038617, 0.00230569, 0.00000000, 0.00000000, 0.00000000, 0.00000000
1, 0.1125, 45, 0.00827570, 0.00380648, -1.00275576, 0.04496546, 0.09428199, 0.01789601, 0.00000000, 0.00000000, 0.00000000, -0.27921689, 0.48770103, -10.76481438, 0.99557990, 0.00202664, -0.00446576, 0.09379114, 0.00023618, 0.00106658, 0.00280380, 0.00000000, 0.00000000, 0.00000000, 0.00000000
1, 0.1150, 46, 0.00872699, 0.00524657, -1.00030959, -0.02540390, -0.04547287, 0.01636935, 0.00000000, 0.00000000, 0.00000000, -0.27928004, 0.48758748, -10.76477242, 0.99557984, 0.00202728, -0.00446483, 0.09379077, -0.00021709, -0.00037242, 0.00035769, 0.00000000, 0.00000000, 0.00000000, 0.00000000
1, 0.1175, 47, 0.00727263, 0.00475646, -1.00081074, -0.02556806, 0.16417323, -0.05242698, 0.00000000, 0.00000000, 0.00000000, -0.27934510, 0.48799723, -10.76490593, 0.99557972, 0.00202751, -0.00446844, 0.09379192, 0.00124442, 0.00011883, 0.00085890, 0.00000000, 0.00000000, 0.00000000, 0.00000000
1, 0.1200, 48, 0.00826232, 0.00477316, -1.00226390, 0.11675262, 0.02621717, -0.12106841, 0.00000000, 0.00000000, 0.00000000, -0.27905583, 0.48806122, -10.76521015, 0.99557948, 0.00202493, -0.00446877, 0.09379456, 0.00025585, 0.00009709, 0.00231206, 0.00000000, 0.00000000, 0.00000000, 0.00000000
1, 0.1225, 49, 0.00924660, 0.00380856, -1.00226092, 0.11614073, 0.09528746, -0.05098389, 0.00000000, 0.00000000, 0.00000000, -0.27876657, 0.48829883, -10.76533699, 0.99557936, 0.00202222, -0.00447060, 0.09379569, -0.00072429, 0.00105664, 0.00230908, 0.00000000, 0.00000000, 0.00000000, 0.00000000
1, 0.1250, 50, 0.00824859, 0.00525101, -1.00128746, 0.04474159, 0.02399410, 0.08733644, 0.00000000, 0.00000000, 0.00000000, -0.27865285, 0.48835975, -10.76512051, 0.99557954, 0.00202119, -0.00447103, 0.09379379, 0.00027479, -0.00038780, 0.00133562, 0.00000000, 0.00000000, 0.00000000, 0.00000000
1, 0.1275, 51, 0.00874506, 0.00428355, -1.00128841, -0.02562777, -0.11576077, 0.08580977, 0.00000000, 0.00000000, 0.00000000, -0.27871510, 0.48807141, -10.76490402, 0.99557972, 0.00202197, -0.00446857, 0.09379192, -0.00022672, 0.00058075, 0.00133657, 0.00000000, 0.00000000, 0.00000000, 0.00000000
1, 0.1300, 52, 0.00824894, 0.00573983, -1.00177193, 0.11530496, 0.09406986, 0.08854105, 0.00000000, 0.00000000, 0.00000000, -0.27842498, 0.48830763, -10.76468468, 0.99558002, 0.00201927, -0.00447038, 0.09379003, 0.00027353, -0.00088060, 0.00182009, 0.00000000, 0.00000000, 0.00000000, 0.00000000
1, 0.1325, 53, 0.00824424, 0.00573618, -1.00128496, 0.18606234, 0.09446653, 0.08942362, 0.00000000, 0.00000000, 0.00000000, -0.27795792, 0.48854482, -10.76446152, 0.99558008, 0.00201502, -0.00447206, 0.09378809, 0.00028236, -0.00088510, 0.00133312, 0.00000000, 0.00000000, 0.00000000, 0.00000000
1, 0.1350, 54, 0.00776947, 0.00427782, -1.00129628, -0.02356820, -0.25268376, -0.19388419, 0.00000000, 0.00000000, 0.00000000, -0.27802098, 0.48791072, -10.76494408, 0.99557978, 0.00201607, -0.00446661, 0.09379230, 0.00074608, 0.00057437, 0.00134432, 0.00000000, 0.00000000, 0.00000000, 0.00000000
1, 0.1375, 55, 0.00923649, 0.00282361, -1.00031781, -0.02755595, -0.09925454, -0.06076442, 0.00000000, 0.00000000, 0.00000000, -0.26722908, 0.49152294, -10.76364326, 0.99558091, 0.00191940, -0.00448914, 0.09378134, -0.00065791, 0.00184022, 0.00036544, 0.00000000, 0.00000000, 0.00000000, 0.00000000
1, 0.1400, 56, 0.00727804, 0.00573775, -1.00226688, -0.02794399, 0.04010366, -0.06012033, 0.00000000, 0.00000000, 0.00000000, -0.26730028, 0.49162245, -10.76379490, 0.99558079, 0.00191993, -0.00449006, 0.09378265, 0.00130228, -0.00107267, 0.00231451, 0.00000000, 0.00000000, 0.00000000, 0.00000000
1, 0.1425, 57, 0.00776947, 0.00427782, -1.00129628, -0.02774997, -0.02957544, -0.06044238, 0.00000000, 0.00000000, 0.00000000, -0.26737097, 0.49154776, -10.76394558, 0.99558067, 0.00192060, -0.00448947, 0.09378396, 0.00080955, 0.00038850, 0.00134391, 0.00000000, 0.00000000, 0.00000000, 0.00000000
1, 0.1450, 58, 0.00923721, 0.00380125, -1.00128686, -0.16929460, -0.17033577, 0.00691086, 0.00000000, 0.00000000, 0.00000000, -0.26779404, 0.49112198, -10.76392651, 0.99558067, 0.00192463, -0.00448612, 0.09378379, -0.00066562, 0.00087244, 0.00133449, 0.00000000, 0.00000000, 0.00000000, 0.00000000
1, 0.1475, 59, 0.00777922, 0.00477394, -1.00275481, -0.02794399, 0.04010366, -0.06012033, 0.00000000, 0.00000000, 0.00000000, -0.26786521, 0.49122152, -10.76407719, 0.99558055, 0.00192516, -0.00448704, 0.09378509, 0.00079410, -0.00009900, 0.00280249, 0.00000000, 0.00000000, 0.00000000, 0.00000000
1, 0.1500, 60, 0.00874542, 0.00477237, -1.00177288, -0.02836187, 0.03949486, 0.00964213, 0.00000000, 0.00000000, 0.00000000, -0.26793593, 0.49132028, -10.76405430, 0.99558055, 0.00192569, -0.00448796, 0.09378488, -0.00017038, -0.00009620, 0.00182056, 0.00000000, 0.00000000, 0.00000000, 0.00000000
1, 0.1525, 61, 0.00678049, 0.00523876, -1.00081229, 0.04197764, 0.03928272, 0.08028717, 0.00000000, 0.00000000, 0.00000000, -0.26782930, 0.49141946, -10.76385403, 0.99558073, 0.00192469, -0.00448873, 0.09378315, 0.00179629, -0.00056444, 0.00085998, 0.00000000, 0.00000000, 0.00000000, 0.00000000
1, 0.1550, 62, 0.00773295, 0.00571504, -0.99885398, 0.04178362, 0.10896182, 0.08060922, 0.00000000, 0.00000000, 0.00000000, -0.26772308, 0.49169269, -10.76365185, 0.99558091, 0.00192356, -0.00449101, 0.09378140, 0.00084860, -0.00104259, -0.00109822, 0.00000000, 0.00000000, 0.00000000, 0.00000000
1, 0.1575, 63, 0.00823413, 0.00475123, -0.99934191, 0.04258953, -0.02978758, 0.01020266, 0.00000000, 0.00000000, 0.00000000, -0.26761636, 0.49161834, -10.76362801, 0.99558091, 0.00192269, -0.00449028, 0.09378119, 0.00034612, -0.00008064, -0.00061041, 0.00000000, 0.00000000, 0.00000000, 0.00000000
1, 0.1600, 64, 0.00824787, 0.00427338, -1.00031841, -0.09831334, -0.09965121, -0.06164699, 0.00000000, 0.00000000, 0.00000000, -0.26786351, 0.49136847, -10.76378059, 0.99558079, 0.00192504, -0.00448831, 0.09378251, 0.00032802, 0.00040153, 0.00036609, 0.00000000, 0.00000000, 0.00000000, 0.00000000
1, 0.1625, 65, 0.00774199, 0.00523353, -0.99934345, -0.09831334, -0.09965121, -0.06164699, 0.00000000, 0.00000000, 0.00000000, -0.26811060, 0.49111858, -10.76393414, 0.99558067, 0.00192738, -0.00448635, 0.09378384, 0.00082953, -0.00055431, -0.00060886, 0.00000000, 0.00000000, 0.00000000, 0.00000000
1, 0.1650, 66, 0.00724444, 0.00473454, -0.99788886, -0.16968262, -0.03097758, 0.00755495, 0.00000000, 0.00000000, 0.00000000, -0.26853466, 0.49104115, -10.76391602, 0.99558067, 0.00193113, -0.00448602, 0.09378366, 0.00132574, -0.00004791, -0.00206345, 0.00000000, 0.00000000, 0.00000000, 0.00000000
1, 0.1675, 67, 0.00870891, 0.00620960, -0.99933070, 0.04281340, 0.04050032, -0.05923777, 0.00000000, 0.00000000, 0.00000000, -0.26842892, 0.49114168, -10.76406384, 0.99558055, 0.00193012, -0.00448681, 0.09378496, -0.00013698, -0.00152482, -0.00062162, 0.00000000, 0.00000000, 0.00000000, 0.00000000
1, 0.1700, 68, 0.00823449, 0.00524005, -0.99982649, 0.04342530, -0.02856997, -0.12932229, 0.00000000, 0.00000000, 0.00000000, -0.26832312, 0.49106872, -10.76438713, 0.99558032, 0.00192925, -0.00448610, 0.09378777, 0.00033617, -0.00055712, -0.00012589, 0.00000000, 0.00000000, 0.00000000, 0.00000000
1, 0.1725, 69, 0.00726829, 0.00524162, -1.00080836, -0.02774997, -0.02957544, -0.06044238, 0.00000000, 0.00000000, 0.00000000, -0.26839381, 0.49099398, -10.76453686, 0.99558020, 0.00192992, -0.00448551, 0.09378908, 0.00130106, -0.00055746, 0.00085610, 0.00000000, 0.00000000, 0.00000000, 0.00000000
1, 0.1750, 70, 0.00676568, 0.00425016, -0.99838221, 0.04139559, 0.24832004, 0.08125331, 0.00000000, 0.00000000, 0.00000000, -0.26828861, 0.49161562, -10.76433563, 0.99558038, 0.00192851, -0.00449082, 0.09378733, 0.00181453, 0.00043217, -0.00157005, 0.00000000, 0.00000000, 0.00000000, 0.00000000
1, 0.1775, 71, 0.00925784, -0.00009103, -0.99984545, 0.04281340, 0.04050032, -0.05923777, 0.00000000, 0.00000000, 0.00000000, -0.26818281, 0.49171615, -10.76448536, 0.99558014, 0.00192750, -0.00449161, 0.09378861, -0.00067588, 0.00477152, -0.00010681, 0.00000000, 0.00000000, 0.00000000, 0.00000000
1, 0.1800, 72, 0.00925784, -0.00009103, -0.99984545, 0.04281340, 0.04050032, -0.05923777, 0.00000000, 0.00000000, 0.00000000, -0.26807711, 0.49181670, -10.76463413, 0.99558002, 0.00192649, -0.00449240, 0.09378991, -0.00067412, 0.00476967, -0.00010681, 0.00000000, 0.00000000, 0.00000000, 0.00000000
1, 0.1825, 73, -0.15747242, -0.52327847, -0.98486829, 0.31311244, 0.09350207, 2.03748846, 0.00000000, 0.00000000, 0.00000000, -0.26725063, 0.49207416, -10.75954151, 0.99558419, 0.00191930, -0.00449387, 0.09374569, 0.16606063, 0.52794266, -0.01508397, 0.00000000, 0.00000000, 0.00000000, 0.00000000
1, 0.1850, 74, -0.15747242, -0.52327847, -0.98486829, 0.31311244, 0.09350207, 2.03748846, 0.00000000, 0.00000000, 0.00000000, -0.26642409, 0.49233162, -10.75444794, 0.99558836, 0.00191211, -0.00449535, 0.09370147, 0.16606511, 0.52792823, -0.01508403, 0.00000000, 0.00000000, 0.00000000, 0.00000000
1, 0.1875, 75, 0.04338780, 0.16018645, -0.99388093, 0.37788430, 0.18786620, -8.77569294, 0.00000000, 0.00000000, 0.00000000, -0.28816354, 0.49773532, -10.78001690, 0.99556684, 0.00209555, -0.00456054, 0.09392261, -0.03470079, -0.15515727, -0.00606871, 0.00000000, 0.00000000, 0.00000000, 0.00000000
1, 0.1900, 76, 0.04338780, 0.16018645, -0.99388093, 0.37788430, 0.18786620, -8.77569294, 0.00000000, 0.00000000, 0.00000000, -0.28740954, 0.49809477, -10.80195999, 0.99554896, 0.00208783, -0.00456345, 0.09411328, -0.03469452, -0.15517046, -0.00606865, 0.00000000, 0.00000000, 0.00000000, 0.00000000
1, 0.1925, 77, -0.02964361, -0.07752680, -0.99227500, -0.52360469, 0.06952976, -11.78759766, 0.00000000, 0.00000000, 0.00000000, -0.28897473, 0.49812031, -10.83142853, 0.99552464, 0.00210023, -0.00456549, 0.09436923, 0.03833734, 0.08257017, -0.00767452, 0.00000000, 0.00000000, 0.00000000, 0.00000000
1, 0.1950, 78, -0.02964361, -0.07752680, -0.99227500, -0.52360469, 0.06952976, -11.78759766, 0.00000000, 0.00000000, 0.00000000, -0.29053998, 0.49814501, -10.86089802, 0.99550027, 0.00211263, -0.00456754, 0.09462518, 0.03833777, 0.08259746, -0.00767440, 0.00000000, 0.00000000, 0.00000000, 0.00000000
1, 0.1975, 79, -0.01713199, -0.16525833, -0.99457073, 0.62951207, -0.38326365, -15.05456543, 0.00000000, 0.00000000, 0.00000000, -0.28929296, 0.49699643, -10.89853001, 0.99546927, 0.00210125, -0.00455722, 0.09495219, 0.02580611, 0.17030726, -0.00537890, 0.00000000, 0.00000000, 0.00000000, 0.00000000
1, 0.2000, 80, 0.05558305, 0.05646352, -0.99918312, -0.57539314, -0.11311696, -14.85899544, 0.00000000, 0.00000000, 0.00000000, -0.29105350, 0.49652541, -10.93567657, 0.99543840, 0.00211546, -0.00455528, 0.09527481, -0.04691717, -0.05138391, -0.00076640, 0.00000000, 0.00000000, 0.00000000, 0.00000000
1, 0.2025, 81, 0.09027881, 0.11007844, -1.00398707, -0.81955874, 0.18903725, -9.69760990, 0.00000000, 0.00000000, 0.00000000, -0.29331261, 0.49687433, -10.95992374, 0.99541819, 0.00213383, -0.00456064, 0.09548534, -0.08160684, -0.10495941, 0.00403774, 0.00000000, 0.00000000, 0.00000000, 0.00000000
1, 0.2050, 82, -0.00583117, -0.21507230, -1.00739729, -0.34630042, -0.33003262, -5.78698778, 0.00000000, 0.00000000, 0.00000000, -0.29430366, 0.49597496, -10.97438622, 0.99540609, 0.00214261, -0.00455392, 0.09561095, 0.01448746, 0.22020872, 0.00744802, 0.00000000, 0.00000000, 0.00000000, 0.00000000
1, 0.2075, 83, 0.02955814, -0.14261790, -1.00041032, 0.22544485, -0.10868995, -6.82539797, 0.00000000, 0.00000000, 0.00000000, -0.29388770, 0.49561566, -10.99145031, 0.99539185, 0.00213862, -0.00455077, 0.09575920, -0.02090813, 0.14774700, 0.00046086, 0.00000000, 0.00000000, 0.00000000, 0.00000000
1, 0.2100, 84, 0.05724780, 0.19913039, -0.99990171, 0.84797865, 0.50372791, -4.72168207, 0.00000000, 0.00000000, 0.00000000, -0.29187000, 0.49681452, -11.00325966, 0.99538201, 0.00211962, -0.00455972, 0.09586184, -0.04857688, -0.19403657, -0.00004774, 0.00000000, 0.00000000, 0.00000000, 0.00000000
1, 0.2125, 85, -0.01562309, -0.16081749, -1.00330269, 0.70556837, 0.22178300, -4.44568586, 0.00000000, 0.00000000, 0.00000000, -0.29020250, 0.49731237, -11.01437664, 0.99537277, 0.00210428, -0.00456285, 0.09595846, 0.02430272, 0.16588229, 0.00335324, 0.00000000, 0.00000000, 0.00000000, 0.00000000
1, 0.2150, 86, 0.04282007, -0.21097724, -0.99724352, -0.48241261, -0.46287858, -6.62654638, 0.00000000, 0.00000000, 0.00000000, -0.29155213, 0.49607116, -11.03093719, 0.99535882, 0.00211639, -0.00455350, 0.09610228, -0.03416210, 0.21606557, -0.00270605, 0.00000000, 0.00000000, 0.00000000, 0.00000000
1, 0.2175, 87, -0.03147296, -0.08428309, -0.99865586, -0.98010218, 0.09055997, -6.49062347, 0.00000000, 0.00000000, 0.00000000, -0.29414287, 0.49621448, -11.04716587, 0.99534518, 0.00213812, -0.00455723, 0.09624314, 0.04013344, 0.08941665, -0.00129348, 0.00000000, 0.00000000, 0.00000000, 0.00000000
1, 0.2200, 88, 0.04010182, -0.06491079, -1.00187635, -0.03560106, 0.13163592, -10.59513569, 0.00000000, 0.00000000, 0.00000000, -0.29446131, 0.49640754, -11.07365417, 0.99532282, 0.00213967, -0.00455966, 0.09647319, -0.03143799, 0.07004990, 0.00192702, 0.00000000, 0.00000000, 0.00000000, 0.00000000
1, 0.2225, 89, 0.03618188, -0.00474475, -1.00500977, 0.11227151, 0.56146228, -11.84716225, 0.00000000, 0.00000000, 0.00000000, -0.29443762, 0.49765885, -11.10328007, 0.99529785, 0.00213723, -0.00457107, 0.09673049, -0.02749621, 0.00988344, 0.00506073, 0.00000000, 0.00000000, 0.00000000, 0.00000000
1, 0.2250, 90, 0.02007177, -0.22416402, -1.00382590, 1.09615910, 0.41730779, -10.64948845, 0.00000000, 0.00000000, 0.00000000, -0.29192877, 0.49856582, -11.12990952, 0.99527538, 0.00211361, -0.00457732, 0.09696186, -0.01137027, 0.22925898, 0.00387675, 0.00000000, 0.00000000, 0.00000000, 0.00000000
1, 0.2275, 91, 0.02006052, -0.10327895, -1.01294887, 0.69676220, -0.17809120, -14.56438160, 0.00000000, 0.00000000, 0.00000000, -0.29050347, 0.49793553, -11.16632080, 0.99524462, 0.00210031, -0.00457131, 0.09727816, -0.01137002, 0.10834901, 0.01299942, 0.00000000, 0.00000000, 0.00000000, 0.00000000
1, 0.2300, 92, -0.04677042, 0.03638517, -0.99085671, 0.29261953, 0.47890705, -18.26418877, 0.00000000, 0.00000000, 0.00000000, -0.29016921, 0.49890137, -11.21198654, 0.99520570, 0.00209477, -0.00458024, 0.09767476, 0.05547780, -0.03132099, -0.00909257, 0.00000000, 0.00000000, 0.00000000, 0.00000000
1, 0.2325, 93, 0.06342290, -0.17450303, -0.99202073, -0.17444526, -0.32227319, -22.59950447, 0.00000000, 0.00000000, 0.00000000, -0.29109672, 0.49780905, -11.26848125, 0.99515748, 0.00210150, -0.00457259, 0.09816540, -0.05473462, 0.17958345, -0.00792867, 0.00000000, 0.00000000, 0.00000000, 0.00000000
1, 0.2350, 94, -0.00231244, -0.18750088, -0.99310386, 0.46065497, 0.44837576, -22.65778160, 0.00000000, 0.00000000, 0.00000000, -0.29043773, 0.49864241, -11.32513428, 0.99510878, 0.00209280, -0.00458029, 0.09865738, 0.01101528, 0.19256982, -0.00684542, 0.00000000, 0.00000000, 0.00000000, 0.00000000
1, 0.2375, 95, -0.03369118, -0.04493038, -1.00723934, -0.49184641, -0.13132380, -28.74237061, 0.00000000, 0.00000000, 0.00000000, -0.28986812, 0.49589390, -11.39667320, 0.99504703, 0.00208737, -0.00455724, 0.09927869, 0.04234605, 0.04998932, 0.00728959, 0.00000000, 0.00000000, 0.00000000, 0.00000000
1, 0.2400, 96, 0.07076032, -0.15294831, -1.01376832, 0.46065405, 0.20125335, -34.31060410, 0.00000000, 0.00000000, 0.00000000, -0.28945896, 0.49596331, -11.48245525, 0.99497247, 0.00208035, -0.00455905, 0.10002355, -0.06210426, 0.15800014, 0.01381851, 0.00000000, 0.00000000, 0.00000000, 0.00000000
1, 0.2425, 97, -0.00157347, -0.15152711, -1.00168085, 0.13159686, -0.39435792, -38.15485382, 0.00000000, 0.00000000, 0.00000000, -0.28995442, 0.49449503, -11.57783985, 0.99488890, 0.00208215, -0.00454846, 0.10085174, 0.01020393, 0.15658756, 0.00173092, 0.00000000, 0.00000000, 0.00000000, 0.00000000
1, 0.2450, 98, 0.04050948, 0.03882461, -0.98819286, 0.14389460, 0.46309942, -40.59267807, 0.00000000, 0.00000000, 0.00000000, -0.29047117, 0.49513873, -11.67932796, 0.99479920, 0.00208203, -0.00455635, 0.10173281, -0.03186779, -0.03375515, -0.01175696, 0.00000000, 0.00000000, 0.00000000, 0.00000000
1, 0.2475, 99, 0.00598420, -0.11698696, -1.00777495, 0.78544205, 0.12375310, -41.21420288, 0.00000000, 0.00000000, 0.00000000, -0.28939784, 0.49492663, -11.78236771, 0.99470729, 0.00206881, -0.00455542, 0.10262731, 0.00265379, 0.12203769, 0.00782502, 0.00000000, 0.00000000, 0.00000000, 0.00000000
1, 0.2500, 100, 0.04010315, -0.24502915, -0.98769867, 0.01972192, -0.49189338, -43.04063797, 0.00000000, 0.00000000, 0.00000000, -0.29027632, 0.49315265, -11.88996696, 0.99461061, 0.00207376, -0.00454276, 0.10356129, -0.03149613, 0.25009528, -0.01225144, 0.00000000, 0.00000000, 0.00000000, 0.00000000
1, 0.2525, 101, 0.06458379, -0.12587555, -1.00539994, -0.54768026, -0.91679406, -42.63105011, 0.00000000, 0.00000000, 0.00000000, -0.29256013, 0.49031842, -11.99653435, 0.99451393, 0.00209194, -0.00452217, 0.10448620, -0.05602624, 0.13098150, 0.00544959, 0.00000000, 0.00000000, 0.00000000, 0.00000000
1, 0.2550, 102, 0.05613006, -0.05021368, -1.00800371, -0.42849237, 0.17086001, -39.41506195, 0.00000000, 0.00000000, 0.00000000, -0.29447454, 0.49024072, -12.09507465, 0.99442363, 0.00210473, -0.00452505, 0.10534129, -0.04757386, 0.05535303, 0.00805360, 0.00000000, 0.00000000, 0.00000000, 0.00000000
1, 0.2575, 103, -0.01810376, 0.00264473, -0.99810380, 0.55512637, 0.72593176, -38.49321747, 0.00000000, 0.00000000, 0.00000000, -0.29391134, 0.49156141, -12.19132042, 0.99433476, 0.00209482, -0.00453776, 0.10617645, 0.02668301, 0.00248478, -0.00184625, 0.00000000, 0.00000000, 0.00000000, 0.00000000
1, 0.2600, 104, 0.12721376, -0.25651252, -1.00507593, 0.48480171, -0.18333720, -38.14947510, 0.00000000, 0.00000000, 0.00000000, -0.29351681, 0.49061406, -12.28669453, 0.99424613, 0.00208850, -0.00453091, 0.10700405, -0.11865104, 0.26163515, 0.00512576, 0.00000000, 0.00000000, 0.00000000, 0.00000000
1, 0.2625, 105, 0.03955555, -0.22407123, -1.00074613, 0.29576772, 0.30633417, -30.47479248, 0.00000000, 0.00000000, 0.00000000, -0.29343009, 0.49098971, -12.36288834, 0.99417478, 0.00208438, -0.00453548, 0.10766511, -0.03098628, 0.22919241, 0.00079590, 0.00000000, 0.00000000, 0.00000000, 0.00000000
1, 0.2650, 106, -0.00600637, 0.00410616, -0.98923212, -0.99081951, 0.28032130, -28.32804108, 0.00000000, 0.00000000, 0.00000000, -0.29651427, 0.49132583, -12.43371391, 0.99410796, 0.00210802, -0.00454259, 0.10827942, 0.01458152, 0.00106877, -0.01071775, 0.00000000, 0.00000000, 0.00000000, 0.00000000
1, 0.2800, 107, 0.01790677, -0.19551784, -1.00808024, 0.47626588, -0.78819275, -24.68669128, 0.00000000, 0.00000000, 0.00000000, -0.29669377, 0.48101762, -12.84622478, 0.99371201, 0.00210327, -0.00446094, 0.11185760, -0.00951153, 0.20069592, 0.00812888, 0.00000000, 0.00000000, 0.00000000, 0.00000000
1, 0.2825, 108, -0.00122403, -0.19375844, -0.99897152, 0.19493766, -0.64737737, -25.03838539, 0.00000000, 0.00000000, 0.00000000, -0.29673088, 0.47907501, -12.90881443, 0.99365085, 0.00210306, -0.00444528, 0.11240039, 0.00958537, 0.19893716, -0.00098014, 0.00000000, 0.00000000, 0.00000000, 0.00000000
1, 0.2850, 109, -0.07327373, -0.16269180, -0.99306184, 0.18975894, -0.44503683, -24.27003670, 0.00000000, 0.00000000, 0.00000000, -0.29676297, 0.47764814, -12.96948242, 0.99359131, 0.00210240, -0.00443405, 0.11292650, 0.08161018, 0.16787112, -0.00689006, 0.00000000, 0.00000000, 0.00000000, 0.00000000
1, 0.2875, 110, 0.03643602, -0.09455077, -0.99913520, 1.38885868, 0.46570849, -24.04155922, 0.00000000, 0.00000000, 0.00000000, -0.28804237, 0.48012313, -13.02870178, 0.99353284, 0.00202204, -0.00444796, 0.11344022, -0.02805640, 0.09957788, -0.00081700, 0.00000000, 0.00000000, 0.00000000, 0.00000000
1, 0.2900, 111, 0.03886439, -0.10980151, -1.03426051, 0.03188702, -0.74950743, -21.41282654, 0.00000000, 0.00000000, 0.00000000, -0.28841019, 0.47798017, -13.08222485, 0.99347979, 0.00202528, -0.00443069, 0.11390430, -0.03052216, 0.11483502, 0.03430796, 0.00000000, 0.00000000, 0.00000000, 0.00000000
1, 0.2925, 112, -0.05007786, -0.21804127, -0.96977985, -0.06077938, -1.62136376, -17.37134933, 0.00000000, 0.00000000, 0.00000000, -0.28892261, 0.47370794, -13.12563324, 0.99343669, 0.00203231, -0.00439493, 0.11428072, 0.05834552, 0.22308372, -0.03017324, 0.00000000, 0.00000000, 0.00000000, 0.00000000
1, 0.2950, 113, 0.04861772, -0.25604418, -1.00034952, 1.84905827, 0.41734591, -18.17533493, 0.00000000, 0.00000000, 0.00000000, -0.28467605, 0.47452381, -13.17107868, 0.99339139, 0.00199294, -0.00439856, 0.11467484, -0.04033583, 0.26101258, 0.00039613, 0.00000000, 0.00000000, 0.00000000, 0.00000000
1, 0.2975, 114, -0.00264904, -0.23830651, -1.01236093, 1.25637412, 0.93507725, -13.99406719, 0.00000000, 0.00000000, 0.00000000, -0.28182560, 0.47668841, -13.20607567, 0.99335623, 0.00196471, -0.00441507, 0.11497828, 0.01096872, 0.24322510, 0.01240766, 0.00000000, 0.00000000, 0.00000000, 0.00000000
1, 0.3000, 115, -0.09679688, -0.34656525, -1.01464689, -0.27142474, -0.85060430, -17.99831772, 0.00000000, 0.00000000, 0.00000000, -0.28287753, 0.47434020, -13.25106239, 0.99331117, 0.00197446, -0.00439655, 0.11536827, 0.10507561, 0.35150227, 0.01469332, 0.00000000, 0.00000000, 0.00000000, 0.00000000
1, 0.3025, 116, -0.01330764, 0.14255667, -1.01731873, -1.37133610, -2.62903595, -22.55537415, 0.00000000, 0.00000000, 0.00000000, -0.28676909, 0.46748728, -13.30741882, 0.99325448, 0.00201296, -0.00434205, 0.11585680, 0.02146674, -0.13755181, 0.01736451, 0.00000000, 0.00000000, 0.00000000, 0.00000000
1, 0.3050, 117, 0.04378323, -0.46840212, -0.96104932, 1.29007328, 0.28455514, -19.29923439, 0.00000000, 0.00000000, 0.00000000, -0.28393778, 0.46795836, -13.35566998, 0.99320555, 0.00198611, -0.00434411, 0.11627510, -0.03561591, 0.47335759, -0.03890502, 0.00000000, 0.00000000, 0.00000000, 0.00000000
1, 0.3075, 118, -0.03310854, -0.32974505, -1.00722909, -0.64588195, -0.81273991, -14.58404827, 0.00000000, 0.00000000, 0.00000000, -0.28584945, 0.46574521, -13.39212132, 0.99316859, 0.00200355, -0.00432751, 0.11659102, 0.04123723, 0.33473387, 0.00727463, 0.00000000, 0.00000000, 0.00000000, 0.00000000
1, 0.3100, 119, -0.09055032, -0.32852569, -1.02132285, -0.12883545, -1.68778670, -17.79113007, 0.00000000, 0.00000000, 0.00000000, -0.28653124, 0.46130362, -13.43657875, 0.99312341, 0.00201232, -0.00429049, 0.11697641, 0.09860150, 0.33352643, 0.02136773, 0.00000000, 0.00000000, 0.00000000, 0.00000000
1, 0.3125, 120, -0.12764235, -0.47212535, -0.98874986, 0.56647050, -0.44238102, -16.31149483, 0.00000000, 0.00000000, 0.00000000, -0.28544283, 0.45999414, -13.47735214, 0.99308187, 0.00200270, -0.00427874, 0.11732986, 0.13567071, 0.47710720, -0.01120550, 0.00000000, 0.00000000, 0.00000000, 0.00000000
1, 0.3150, 121, 0.03397118, 0.07771751, -1.00363207, 0.98697037, -0.79570210, -15.47066116, 0.00000000, 0.00000000, 0.00000000, -0.28328514, 0.45781285, -13.51601887, 0.99304229, 0.00198480, -0.00425830, 0.11766508, -0.02598094, -0.07277344, 0.00367624, 0.00000000, 0.00000000, 0.00000000, 0.00000000
1, 0.3175, 122, -0.05092354, -0.23944180, -0.96356452, 1.27870095, -0.15178342, -17.20829201, 0.00000000, 0.00000000, 0.00000000, -0.28043193, 0.45722178, -13.55903816, 0.99299806, 0.00195908, -0.00425098, 0.11803799, 0.05890348, 0.24433608, -0.03639174, 0.00000000, 0.00000000, 0.00000000, 0.00000000
1, 0.3200, 123, -0.03438896, -0.34280196, -1.01412475, -1.11273766, -0.63415116, -19.40319061, 0.00000000, 0.00000000, 0.00000000, -0.28360003, 0.45539764, -13.60754013, 0.99294800, 0.00198662, -0.00423928, 0.11845820, 0.04233706, 0.34775153, 0.01416850, 0.00000000, 0.00000000, 0.00000000, 0.00000000
1, 0.3225, 124, -0.04222870, -0.09169310, -0.98952657, -1.45565963, -0.62030566, -21.22142982, 0.00000000, 0.00000000, 0.00000000, -0.28766000, 0.45358247, -13.66058636, 0.99289304, 0.00202172, -0.00422868, 0.11891773, 0.05014512, 0.09671354, -0.01042956, 0.00000000, 0.00000000, 0.00000000, 0.00000000
1, 0.3575, 125, 0.08602700, -0.42628950, -0.97900122, -0.49927622, -0.93994319, 8.16236973, 0.00000000, 0.00000000, 0.00000000, -0.25755528, 0.46039107, -14.16758347, 0.99235743, 0.00173496, -0.00426415, 0.12331044, -0.07799177, 0.43078464, -0.02095646, 0.00000000, 0.00000000, 0.00000000, 0.00000000
1, 0.3600, 126, 0.07891382, -0.45657563, -1.02256000, 0.78044575, 0.19545612, 6.64863396, 0.00000000, 0.00000000, 0.00000000, -0.25547054, 0.46095398, -14.15096283, 0.99237543, 0.00171692, -0.00426654, 0.12316659, -0.07086875, 0.46103439, 0.02260226, 0.00000000, 0.00000000, 0.00000000, 0.00000000
1, 0.3625, 127, 0.12503986, -0.24643783, -0.99140483, 1.28976154, 0.28861108, 4.28320980, 0.00000000, 0.00000000, 0.00000000, -0.25215995, 0.46172297, -14.14025879, 0.99238688, 0.00168782, -0.00426948, 0.12307397, -0.11698136, 0.25083870, -0.00855297, 0.00000000, 0.00000000, 0.00000000, 0.00000000
1, 0.3650, 128, -0.03754504, -0.28963444, -0.98903936, 0.17368707, 0.09575274, 1.68691123, 0.00000000, 0.00000000, 0.00000000, -0.25169173, 0.46198082, -14.13604164, 0.99239141, 0.00168364, -0.00427115, 0.12303747, 0.04560803, 0.29402712, -0.01091850, 0.00000000, 0.00000000, 0.00000000, 0.00000000
1, 0.3675, 129, 0.15482618, -0.34075171, -1.00820625, -1.04484499, -2.06988883, -6.50148916, 0.00000000, 0.00000000, 0.00000000, -0.25443399, 0.45673427, -14.15227413, 0.99237418, 0.00171243, -0.00422890, 0.12317807, -0.14685477, 0.34519231, 0.00824791, 0.00000000, 0.00000000, 0.00000000, 0.00000000
1, 0.3700, 130, 0.11121710, -0.40282685, -0.98208761, -1.58969557, -1.30531085, 1.37935627, 0.00000000, 0.00000000, 0.00000000, -0.25838074, 0.45348644, -14.14881134, 0.99237794, 0.00175023, -0.00420496, 0.12314802, -0.10330238, 0.40733641, -0.01787097, 0.00000000, 0.00000000, 0.00000000, 0.00000000
1, 0.3725, 131, 0.00887829, -0.02541386, -0.98780191, -1.53966808, 0.41392896, 4.03926420, 0.00000000, 0.00000000, 0.00000000, -0.26214996, 0.45456702, -14.13871765, 0.99238867, 0.00178208, -0.00421821, 0.12306044, -0.00094469, 0.02998909, -0.01215613, 0.00000000, 0.00000000, 0.00000000, 0.00000000
1, 0.3750, 132, 0.06293055, -0.03163126, -1.02197802, -3.90136266, -2.61369038, -1.93472350, 0.00000000, 0.00000000, 0.00000000, -0.27194124, 0.44801024, -14.14352417, 0.99238354, 0.00187374, -0.00417202, 0.12310187, -0.05511139, 0.03637738, 0.02201993, 0.00000000, 0.00000000, 0.00000000, 0.00000000
1, 0.3775, 133, 0.15006047, -0.52325517, -1.00333285, 1.62789202, 2.04955482, -5.68156338, 0.00000000, 0.00000000, 0.00000000, -0.26798338, 0.45306709, -14.15775299, 0.99236816, 0.00183351, -0.00421179, 0.12322511, -0.14215308, 0.52793229, 0.00337511, 0.00000000, 0.00000000, 0.00000000, 0.00000000
1, 0.3800, 134, -0.00800973, -0.43897218, -0.97982377, -2.32473135, -2.99564195, -5.05654955, 0.00000000, 0.00000000, 0.00000000, -0.27389410, 0.44551826, -14.17035866, 0.99235475, 0.00189236, -0.00415298, 0.12333425, 0.01578542, 0.44375250, -0.02013457, 0.00000000, 0.00000000, 0.00000000, 0.00000000
1, 0.3825, 135, 0.02610489, -0.14413366, -0.99508840, 2.23202324, 1.33861482, -11.67761707, 0.00000000, 0.00000000, 0.00000000, -0.26854193, 0.44872651, -14.19956970, 0.99232322, 0.00184149, -0.00417548, 0.12358731, -0.01827323, 0.14882046, -0.00487000, 0.00000000, 0.00000000, 0.00000000, 0.00000000
1, 0.3850, 136, -0.11250404, -0.49509713, -1.01942897, 1.83094013, 1.65026176, -15.72784901, 0.00000000, 0.00000000, 0.00000000, -0.26427406, 0.45266929, -14.23890972, 0.99228072, 0.00179884, -0.00420563, 0.12392804, 0.12040455, 0.49970955, 0.01947081, 0.00000000, 0.00000000, 0.00000000, 0.00000000
1, 0.3875, 137, -0.04956658, -0.29581025, -0.95117867, 1.38899374, 0.36321780, -12.25081635, 0.00000000, 0.00000000, 0.00000000, -0.22609922, 0.44678915, -14.26424026, 0.99225402, 0.00147372, -0.00411376, 0.12414891, 0.05736446, 0.29975635, -0.04878314, 0.00000000, 0.00000000, 0.00000000, 0.00000000
1, 0.3900, 138, 0.08111090, -0.27869627, -1.06010938, -5.21691990, -0.86741275, -19.31582069, 0.00000000, 0.00000000, 0.00000000, -0.23951705, 0.44442439, -14.31252289, 0.99220157, 0.00159074, -0.00410849, 0.12456655, -0.07335433, 0.28287655, 0.06014819, 0.00000000, 0.00000000, 0.00000000, 0.00000000
1, 0.3925, 139, -0.13660099, -0.34849054, -0.98331982, -4.18657207, 0.63251418, -14.83070087, 0.00000000, 0.00000000, 0.00000000, -0.25027159, 0.44584718, -14.34960556, 0.99216098, 0.00168097, -0.00413304, 0.12488721, 0.14438243, 0.35285851, -0.01664037, 0.00000000, 0.00000000, 0.00000000, 0.00000000
1, 0.3950, 140, -0.13660099, -0.34849054, -0.98331982, -4.18657207, 0.63251418, -14.83070087, 0.00000000, 0.00000000, 0.00000000, -0.26102704, 0.44726297, -14.38669014, 0.99212021, 0.00177121, -0.00415759, 0.12520786, 0.14440712, 0.35304615, -0.01663941, 0.00000000, 0.00000000, 0.00000000, 0.00000000
1, 0.3975, 141, 0.00613095, -0.34937817, -1.01090956, -4.56534433, 0.51965892, -34.16237259, 0.00000000, 0.00000000, 0.00000000, -0.27310783, 0.44816399, -14.47210503, 0.99202651, 0.00187170, -0.00417999, 0.12594688, 0.00169090, 0.35414469, 0.01095140, 0.00000000, 0.00000000, 0.00000000, 0.00000000
1, 0.4000, 142, 0.00613095, -0.34937817, -1.01090956, -4.56534433, 0.51965892, -34.16237259, 0.00000000, 0.00000000, 0.00000000, -0.28518993, 0.44904700, -14.55751801, 0.99193215, 0.00197219, -0.00420239, 0.12668581, 0.00170631, 0.35435554, 0.01095265, 0.00000000, 0.00000000, 0.00000000, 0.00000000
1, 0.4025, 143, 0.13902043, -0.38507679, -0.99784517, 5.10344839, -0.19922803, -41.30150223, 0.00000000, 0.00000000, 0.00000000, -0.27323964, 0.44804579, -14.66077232, 0.99181777, 0.00186609, -0.00418219, 0.12758000, -0.13120064, 0.38984555, -0.00211287, 0.00000000, 0.00000000, 0.00000000, 0.00000000
1, 0.4050, 144, 0.13902043, -0.38507679, -0.99784517, 5.10344839, -0.19922803, -41.30150223, 0.00000000, 0.00000000, 0.00000000, -0.26128763, 0.44706607, -14.76402760, 0.99170262, 0.00175998, -0.00416199, 0.12847410, -0.13121776, 0.38963708, -0.00211394, 0.00000000, 0.00000000, 0.00000000, 0.00000000
1, 0.4075, 145, -0.00665078, -0.29068062, -0.95421588, 0.04000507, 1.81366873, -35.70374680, 0.00000000, 0.00000000, 0.00000000, -0.26188749, 0.45119265, -14.85330868, 0.99160212, 0.00175727, -0.00419975, 0.12924662, 0.01452549, 0.29525131, -0.04574270, 0.00000000, 0.00000000, 0.00000000, 0.00000000
1, 0.4100, 146, -0.00665078, -0.29068062, -0.95421588, 0.04000507, 1.81366873, -35.70374680, 0.00000000, 0.00000000, 0.00000000, -0.26249379, 0.45531833, -14.94259071, 0.99150091, 0.00175457, -0.00423750, 0.13001904, 0.01459749, 0.29526183, -0.04574209, 0.00000000, 0.00000000, 0.00000000, 0.00000000
1, 0.4125, 147, -0.16308308, 0.04079615, -1.02440310, 2.23879719, 3.23294115, -37.20471954, 0.00000000, 0.00000000, 0.00000000, -0.25764248, 0.46297830, -15.03564358, 0.99139488, 0.00170041, -0.00429966, 0.13082412, 0.17116351, -0.03629962, 0.02444584, 0.00000000, 0.00000000, 0.00000000, 0.00000000
1, 0.4150, 148, -0.02076684, -0.52286923, -0.99594069, 1.29026461, -0.52649128, -54.25802994, 0.00000000, 0.00000000, 0.00000000, -0.25551057, 0.46105456, -15.17128468, 0.99123943, 0.00167909, -0.00428257, 0.13199767, 0.02881368, 0.52732867, -0.00401706, 0.00000000, 0.00000000, 0.00000000, 0.00000000
1, 0.4175, 149, -0.00290632, -0.58799738, -0.96690720, -0.30326101, -1.00869346, -47.93099976, 0.00000000, 0.00000000, 0.00000000, -0.25722966, 0.45799664, -15.29110336, 0.99110091, 0.00169303, -0.00425987, 0.13303407, 0.01089978, 0.59248686, -0.03305078, 0.00000000, 0.00000000, 0.00000000, 0.00000000
1, 0.4200, 150, -0.29655784, 0.44262940, -1.01124907, -5.18095398, -3.12826300, -47.79226685, 0.00000000, 0.00000000, 0.00000000, -0.27112815, 0.44962510, -15.41054916, 0.99096173, 0.00181858, -0.00420550, 0.13406678, 0.30440521, -0.43789747, 0.01129109, 0.00000000, 0.00000000, 0.00000000, 0.00000000
1, 0.4225, 151, 0.14615284, -0.31569242, -0.99207568, -1.60375953, 1.80894887, -68.30704498, 0.00000000, 0.00000000, 0.00000000, -0.27648333, 0.45333135, -15.58134365, 0.99076062, 0.00185422, -0.00424658, 0.13554332, -0.13824083, 0.32051787, -0.00788135, 0.00000000, 0.00000000, 0.00000000, 0.00000000
1, 0.4250, 152, 0.14460324, -0.48709369, -0.97689182, -2.37437391, -1.92487144, -56.12419128, 0.00000000, 0.00000000, 0.00000000, -0.28352255, 0.44783351, -15.72163200, 0.99059403, 0.00191644, -0.00420972, 0.13675605, -0.13678718, 0.49204203, -0.02306539, 0.00000000, 0.00000000, 0.00000000, 0.00000000
1, 0.4275, 153, -0.12451476, 0.00722635, -1.04666781, -1.94329119, -0.15941133, -34.48175049, 0.00000000, 0.00000000, 0.00000000, -0.28905395, 0.44700426, -15.80783749, 0.99049073, 0.00196207, -0.00421063, 0.13750102, 0.13231637, -0.00218159, 0.04671097, 0.00000000, 0.00000000, 0.00000000, 0.00000000
1, 0.4300, 154, 0.13301040, -0.09387850, -0.94721431, 1.24938774, 0.99035090, -36.39023590, 0.00000000, 0.00000000, 0.00000000, -0.28664199, 0.44902298, -15.89882660, 0.99038130, 0.00193545, -0.00422673, 0.13828750, -0.12517358, 0.09888120, -0.05274250, 0.00000000, 0.00000000, 0.00000000, 0.00000000
1, 0.4325, 155, -0.01269335, -0.04050475, -1.06354415, 5.46338511, 1.45807099, -31.31212425, 0.00000000, 0.00000000, 0.00000000, -0.27359936, 0.45228526, -15.97712803, 0.99028671, 0.00181589, -0.00424043, 0.13896459, 0.02058714, 0.04527979, 0.06358667, 0.00000000, 0.00000000, 0.00000000, 0.00000000
1, 0.4350, 156, 0.12954862, -0.13421977, -1.00589323, 8.21377373, 8.52635002, -32.98924255, 0.00000000, 0.00000000, 0.00000000, -0.25373182, 0.47322145, -16.05970383, 0.99018586, 0.00161564, -0.00439842, 0.13967837, -0.12128948, 0.13864808, 0.00593710, 0.00000000, 0.00000000, 0.00000000, 0.00000000
1, 0.4375, 157, 0.07653858, -0.36153924, -1.01576185, -4.35696697, -3.05287576, -31.87398529, 0.00000000, 0.00000000, 0.00000000, -0.25192371, 0.46771786, -16.13822365, 0.99009019, 0.00160374, -0.00434976, 0.14035706, -0.06837547, 0.36593604, 0.01580489, 0.00000000, 0.00000000, 0.00000000, 0.00000000
1, 0.4400, 158, -0.02315238, -0.20863822, -1.03818762, -3.27330923, -4.27375317, -35.00585938, 0.00000000, 0.00000000, 0.00000000, -0.26081258, 0.45664200, -16.22569466, 0.98998296, 0.00169085, -0.00426625, 0.14111270, 0.03112221, 0.21319015, 0.03822977, 0.00000000, 0.00000000, 0.00000000, 0.00000000
1, 0.4425, 159, -0.08647370, -0.42412138, -0.95164478, 12.09399700, 5.62584257, -41.46644592, 0.00000000, 0.00000000, 0.00000000, -0.23141660, 0.47026113, -16.32942200, 0.98985481, 0.00141619, -0.00434899, 0.14200957, 0.09468125, 0.42816034, -0.04831345, 0.00000000, 0.00000000, 0.00000000, 0.00000000
1, 0.4450, 160, -0.09966281, 0.14045990, -1.06526816, 4.78521109, -0.00949629, -47.30484390, 0.00000000, 0.00000000, 0.00000000, -0.22042377, 0.46977118, -16.44768715, 0.98970789, 0.00131737, -0.00433250, 0.14303151, 0.10786180, -0.13661295, 0.06530912, 0.00000000, 0.00000000, 0.00000000, 0.00000000
1, 0.4475, 161, 0.06707713, -0.10860796, -0.97655624, 3.60394645, -0.54445004, -50.67102051, 0.00000000, 0.00000000, 0.00000000, -0.21245049, 0.46793136, -16.57436371, 0.98954922, 0.00124604, -0.00430803, 0.14412582, -0.05891028, 0.11231578, -0.02340353, 0.00000000, 0.00000000, 0.00000000, 0.00000000
1, 0.4500, 162, 0.03455443, -0.27120766, -0.99518275, 4.39521742, 0.38826734, -53.23834229, 0.00000000, 0.00000000, 0.00000000, -0.20255002, 0.46841997, -16.70746422, 0.98938131, 0.00115493, -0.00430115, 0.14527549, -0.02637906, 0.27474275, -0.00477755, 0.00000000, 0.00000000, 0.00000000, 0.00000000
1, 0.4525, 163, -0.09193936, -0.32885295, -0.97847623, 6.19804478, 3.59584093, -60.31755447, 0.00000000, 0.00000000, 0.00000000, -0.18829916, 0.47689500, -16.85829353, 0.98918903, 0.00101541, -0.00435759, 0.14657798, 0.10026268, 0.33213934, -0.02148366, 0.00000000, 0.00000000, 0.00000000, 0.00000000
1, 0.4550, 164, 0.13455065, 0.00547580, -0.99588513, -1.33204257, -0.30479831, -65.45292664, 0.00000000, 0.00000000, 0.00000000, -0.19298941, 0.47558865, -17.02192879, 0.98897874, 0.00105135, -0.00435382, 0.14799023, -0.12625019, -0.00210763, -0.00407475, 0.00000000, 0.00000000, 0.00000000, 0.00000000
1, 0.4575, 165, 0.16420834, -0.16342045, -1.03157640, -1.91317427, -6.09952164, -48.53290939, 0.00000000, 0.00000000, 0.00000000, -0.19876251, 0.45992520, -17.14321327, 0.98882198, 0.00111693, -0.00422728, 0.14903697, -0.15618122, 0.16688940, 0.03161460, 0.00000000, 0.00000000, 0.00000000, 0.00000000
1, 0.4600, 166, -0.02350593, 0.08988139, -0.92367136, -2.23851466, -3.71408677, -42.59535980, 0.00000000, 0.00000000, 0.00000000, -0.20520434, 0.45026448, -17.24967003, 0.98868340, 0.00118123, -0.00415339, 0.14995551, 0.03136445, -0.08630003, -0.07629134, 0.00000000, 0.00000000, 0.00000000, 0.00000000
1, 0.4625, 167, 0.00241467, -0.11772811, -1.04141331, 8.77804089, 7.47297573, -55.73230362, 0.00000000, 0.00000000, 0.00000000, -0.18437685, 0.46847314, -17.38906860, 0.98849982, 0.00097249, -0.00428442, 0.15115851, 0.00576164, 0.12094600, 0.04145194, 0.00000000, 0.00000000, 0.00000000, 0.00000000
1, 0.4650, 168, 0.16709973, -0.09481090, -0.99029094, -1.45329010, -1.25552952, -68.38921356, 0.00000000, 0.00000000, 0.00000000, -0.18940249, 0.46477661, -17.56003571, 0.98827326, 0.00101436, -0.00426068, 0.15263304, -0.15898797, 0.09811652, -0.00967062, 0.00000000, 0.00000000, 0.00000000, 0.00000000
1, 0.4675, 169, 0.15266718, -0.18045911, -1.03321755, 5.87737608, 3.39949536, -53.97334671, 0.00000000, 0.00000000, 0.00000000, -0.17581335, 0.47284514, -17.69499969, 0.98809266, 0.00088134, -0.00431321, 0.15379727, -0.14441460, 0.18352756, 0.03325636, 0.00000000, 0.00000000, 0.00000000, 0.00000000
1, 0.4700, 170, -0.07273057, 0.20698719, -0.98581064, -1.13199282, -7.42027760, -48.38978958, 0.00000000, 0.00000000, 0.00000000, -0.17962128, 0.45391932, -17.81592178, 0.98793042, 0.00093519, -0.00415612, 0.15484007, 0.08065289, -0.20385237, -0.01415307, 0.00000000, 0.00000000, 0.00000000, 0.00000000
1, 0.4725, 171, 0.27700019, -0.09405231, -1.00449979, 9.35481548, 0.91535509, -54.49979401, 0.00000000, 0.00000000, 0.00000000, -0.15731603, 0.45580706, -17.95218086, 0.98774570, 0.00073542, -0.00414313, 0.15601549, -0.26904500, 0.09679794, 0.00453526, 0.00000000, 0.00000000, 0.00000000, 0.00000000
1, 0.4750, 172, 0.11140548, -0.11523428, -0.96356988, 4.22137690, -0.11211632, -35.86997604, 0.00000000, 0.00000000, 0.00000000, -0.14747557, 0.45528823, -18.04185867, 0.98762333, 0.00064807, -0.00412577, 0.15678878, -0.10345928, 0.11780813, -0.03639525, 0.00000000, 0.00000000, 0.00000000, 0.00000000
1, 0.4775, 173, 0.23151921, -0.24179611, -1.00854361, -2.40828061, -1.75987327, -27.02954483, 0.00000000, 0.00000000, 0.00000000, -0.15403046, 0.45071062, -18.10942459, 0.98753089, 0.00070841, -0.00409570, 0.15737092, -0.22365296, 0.24448442, 0.00857812, 0.00000000, 0.00000000, 0.00000000, 0.00000000
1, 0.4800, 174, -0.00015367, 0.10635708, -1.03249609, 4.16782951, 1.73607481, -16.04721451, 0.00000000, 0.00000000, 0.00000000, -0.14392805, 0.45494652, -18.14955521, 0.98747557, 0.00061409, -0.00411855, 0.15771703, 0.00809390, -0.10384515, 0.03253073, 0.00000000, 0.00000000, 0.00000000, 0.00000000
1, 0.4825, 175, 0.12543717, -0.07908807, -0.98470181, 2.44318986, -0.16823819, -22.56620407, 0.00000000, 0.00000000, 0.00000000, -0.13826779, 0.45438692, -18.20597267, 0.98739797, 0.00056407, -0.00410622, 0.15820341, -0.11750674, 0.08150123, -0.01526380, 0.00000000, 0.00000000, 0.00000000, 0.00000000
1, 0.4850, 176, 0.00122626, 0.02362523, -0.99832785, 3.80357933, 0.42230093, -25.47688103, 0.00000000, 0.00000000, 0.00000000, -0.12926449, 0.45529395, -18.26967049, 0.98730981, 0.00048296, -0.00410187, 0.15875255, 0.00672003, -0.02136922, -0.00163800, 0.00000000, 0.00000000, 0.00000000, 0.00000000
1, 0.4875, 177, 0.26855427, 0.34332001, -1.03788650, 8.55391979, 3.33129025, -28.33456993, 0.00000000, 0.00000000, 0.00000000, -0.11928815, 0.47173661, -18.34366798, 0.98720652, 0.00037149, -0.00422996, 0.15939018, -0.26032108, -0.34123817, 0.03792257, 0.00000000, 0.00000000, 0.00000000, 0.00000000
1, 0.4900, 178, 0.28821039, 0.10822228, -0.98779029, 6.44281006, -0.75420022, -16.65842628, 0.00000000, 0.00000000, 0.00000000, -0.10352328, 0.46977010, -18.38531303, 0.98714870, 0.00023689, -0.00419118, 0.15974955, -0.28001150, -0.10641555, -0.01217449, 0.00000000, 0.00000000, 0.00000000, 0.00000000
1, 0.4925, 179, 0.15007800, -0.34947318, -1.01364648, -1.14100456, -7.81143141, -11.41335678, 0.00000000, 0.00000000, 0.00000000, -0.10660460, 0.45018923, -18.41381264, 0.98710954, 0.00028973, -0.00402686, 0.15999520, -0.14222080, 0.35133371, 0.01367909, 0.00000000, 0.00000000, 0.00000000, 0.00000000
1, 0.4950, 180, 0.15358217, -0.30969951, -1.00903165, -2.10254931, 0.37814966, -8.24751759, 0.00000000, 0.00000000, 0.00000000, -0.11202317, 0.45109519, -18.43443298, 0.98708069, 0.00033441, -0.00404229, 0.16017263, -0.14570916, 0.31165463, 0.00906456, 0.00000000, 0.00000000, 0.00000000, 0.00000000
1, 0.4975, 181, 0.14124933, 0.27369538, -0.97692692, -7.74033546, -8.04849625, 3.50405478, 0.00000000, 0.00000000, 0.00000000, -0.13130625, 0.43099257, -18.42563057, 0.98709357, 0.00052891, -0.00389604, 0.16009642, -0.13372719, -0.27140379, -0.02304221, 0.00000000, 0.00000000, 0.00000000, 0.00000000
1, 0.5000, 182, -0.05494204, 0.38017088, -0.96676171, -0.77353102, 0.78306168, -5.85689259, 0.00000000, 0.00000000, 0.00000000, -0.13335049, 0.43291634, -18.44027710, 0.98707306, 0.00054333, -0.00391554, 0.16022250, 0.06249780, -0.37784368, -0.03320707, 0.00000000, 0.00000000, 0.00000000, 0.00000000
1, 0.5025, 183, 0.37516397, 0.01469420, -1.06452012, 1.32445991, -0.81746197, -12.74551105, 0.00000000, 0.00000000, 0.00000000, -0.13027950, 0.43079931, -18.47213745, 0.98702860, 0.00051876, -0.00389316, 0.16049707, -0.36764523, -0.01242047, 0.06455089, 0.00000000, 0.00000000, 0.00000000, 0.00000000
1, 0.5050, 184, 0.32042709, -0.33606327, -0.98444396, -2.62978745, -3.93431115, 22.56440163, 0.00000000, 0.00000000, 0.00000000, -0.13643441, 0.42109483, -18.41569901, 0.98710763, 0.00058725, -0.00381790, 0.16001086, -0.31307772, 0.33844450, -0.01552624, 0.00000000, 0.00000000, 0.00000000, 0.00000000
1, 0.5075, 185, -0.16743673, 0.22200724, -0.99331558, 5.40476608, -1.86927545, 38.79101181, 0.00000000, 0.00000000, 0.00000000, -0.12221345, 0.41664052, -18.31871033, 0.98724306, 0.00047415, -0.00375927, 0.15917586, 0.17470844, -0.21987434, -0.00665575, 0.00000000, 0.00000000, 0.00000000, 0.00000000
1, 0.5100, 186, -0.02792853, 0.51211381, -1.00580704, 3.99602008, 1.45304608, 24.41622353, 0.00000000, 0.00000000, 0.00000000, -0.11177757, 0.42039770, -18.25767326, 0.98732758, 0.00038103, -0.00377694, 0.15865028, 0.03526579, -0.51016295, 0.00583583, 0.00000000, 0.00000000, 0.00000000, 0.00000000
1, 0.5125, 187, 0.26501250, -0.11887842, -1.00326216, 3.21928525, 1.83354259, 12.19848728, 0.00000000, 0.00000000, 0.00000000, -0.10350444, 0.42503884, -18.22718811, 0.98736960, 0.00030434, -0.00380539, 0.15838781, -0.25759426, 0.12068487, 0.00329125, 0.00000000, 0.00000000, 0.00000000, 0.00000000
1, 0.5150, 188, 0.07353295, -0.12618122, -1.02237582, 3.64571118, 8.94203758, 20.40004730, 0.00000000, 0.00000000, 0.00000000, -0.09400214, 0.44748172, -18.17622375, 0.98743927, 0.00019321, -0.00398555, 0.15794872, -0.06572301, 0.12782180, 0.02240765, 0.00000000, 0.00000000, 0.00000000, 0.00000000
1, 0.5175, 189, -0.12632124, -0.14227827, -0.97487742, -2.79574823, -1.03232586, 25.29689789, 0.00000000, 0.00000000, 0.00000000, -0.10049891, 0.44500822, -18.11297607, 0.98752642, 0.00025480, -0.00397305, 0.15740350, 0.13408805, 0.14403228, -0.02509088, 0.00000000, 0.00000000, 0.00000000, 0.00000000
1, 0.5200, 190, -0.07211445, 0.51445401, -1.02952898, 2.22511411, 3.46463776, 0.26295200, 0.00000000, 0.00000000, 0.00000000, -0.09493109, 0.45367086, -18.11233521, 0.98752701, 0.00019494, -0.00404006, 0.15739805, 0.08003243, -0.51279730, 0.02956171, 0.00000000, 0.00000000, 0.00000000, 0.00000000
1, 0.5225, 191, 0.25919503, -0.23147336, -1.00437152, 2.21708369, -5.04966974, -6.26545191, 0.00000000, 0.00000000, 0.00000000, -0.08951053, 0.44102147, -18.12797737, 0.98750591, 0.00016506, -0.00392362, 0.15753320, -0.25149783, 0.23303556, 0.00440240, 0.00000000, 0.00000000, 0.00000000, 0.00000000
1, 0.5250, 192, -0.15254049, 0.38385206, -1.01769447, 0.79241514, -4.40458202, 6.76690340, 0.00000000, 0.00000000, 0.00000000, -0.08740079, 0.43003613, -18.11104393, 0.98752952, 0.00016255, -0.00382603, 0.15738747, 0.16004597, -0.38232666, 0.01772380, 0.00000000, 0.00000000, 0.00000000, 0.00000000
1, 0.5275, 193, 0.16249463, -0.11259133, -0.95194274, 0.68092823, -2.68254662, 0.98258245, 0.00000000, 0.00000000, 0.00000000, -0.08568010, 0.42333344, -18.10857773, 0.98753315, 0.00015701, -0.00376590, 0.15736635, -0.15510617, 0.11408672, -0.04802884, 0.00000000, 0.00000000, 0.00000000, 0.00000000
1, 0.5300, 194, -0.05534463, -0.02273165, -1.00827444, -6.44755268, -9.09561062, 12.58543682, 0.00000000, 0.00000000, 0.00000000, -0.10157248, 0.40064576, -18.07707596, 0.98757702, 0.00032611, -0.00359212, 0.15709463, 0.06233717, 0.02450439, 0.00830049, 0.00000000, 0.00000000, 0.00000000, 0.00000000
1, 0.5325, 195, -0.09488469, 0.32857102, -0.97611403, 4.19685936, 0.49084103, 14.99522400, 0.00000000, 0.00000000, 0.00000000, -0.09081778, 0.40193576, -18.03958893, 0.98762828, 0.00023283, -0.00358842, 0.15677187, 0.10189974, -0.32698599, -0.02386010, 0.00000000, 0.00000000, 0.00000000, 0.00000000
1, 0.5350, 196, 0.03651302, 0.06353208, -1.05141401, -1.36321473, -2.99522829, 11.56079960, 0.00000000, 0.00000000, 0.00000000, -0.09402487, 0.39449427, -18.01067352, 0.98766804, 0.00027154, -0.00352860, 0.15652265, -0.02962785, -0.06189108, 0.05143905, 0.00000000, 0.00000000, 0.00000000, 0.00000000
1, 0.5375, 197, 0.01931022, 0.02717866, -1.00498259, -11.45797062, -12.11266994, 11.67177677, 0.00000000, 0.00000000, 0.00000000, -0.12376478, 0.36493284, -17.98173904, 0.98770821, 0.00056909, -0.00331429, 0.15627272, -0.01294099, -0.02501861, 0.00500524, 0.00000000, 0.00000000, 0.00000000, 0.00000000
1, 0.5400, 198, -0.03611210, -0.20783904, -0.96036142, -7.29413462, -3.21993089, 9.46258640, 0.00000000, 0.00000000, 0.00000000, -0.14185098, 0.35693789, -17.95806503, 0.98774070, 0.00073656, -0.00326989, 0.15606827, 0.04234181, 0.21031481, -0.03961606, 0.00000000, 0.00000000, 0.00000000, 0.00000000
1, 0.5425, 199, -0.24983704, 0.39727437, -1.00818217, -0.65826744, 2.32200551, 9.57098961, 0.00000000, 0.00000000, 0.00000000, -0.14334644, 0.36280239, -17.93414879, 0.98777300, 0.00074216, -0.00332232, 0.15586199, 0.25616908, -0.39477256, 0.00820529, 0.00000000, 0.00000000, 0.00000000, 0.00000000
1, 0.5450, 200, -0.05308153, 0.24042934, -1.03028917, -1.20659709, 0.97815186, -4.53573561, 0.00000000, 0.00000000, 0.00000000, -0.14643504, 0.36521900, -17.94549561, 0.98775750, 0.00076516, -0.00334743, 0.15595967, 0.05945577, -0.23787369, 0.03031278, 0.00000000, 0.00000000, 0.00000000, 0.00000000
1, 0.5475, 201, 0.06616656, -0.02539904, -1.00925708, 1.71243966, 0.11111259, -7.08494806, 0.00000000, 0.00000000, 0.00000000, -0.14226687, 0.36545211, -17.96320915, 0.98773342, 0.00072840, -0.00334388, 0.15611248, -0.05978828, 0.02788202, 0.00928050, 0.00000000, 0.00000000, 0.00000000, 0.00000000
1, 0.5500, 202, -0.12023543, -0.28201020, -0.97115916, -2.30067229, -1.59408188, 2.06686687, 0.00000000, 0.00000000, 0.00000000, -0.14798573, 0.36147994, -17.95803070, 0.98774052, 0.00078326, -0.00331740, 0.15606774, 0.12654443, 0.28459305, -0.02881760, 0.00000000, 0.00000000, 0.00000000, 0.00000000
1, 0.5525, 203, -0.14850633, 0.43636343, -1.02908266, -0.10735837, 0.33966774, -10.52528858, 0.00000000, 0.00000000, 0.00000000, -0.14842032, 0.36226097, -17.98434830, 0.98770469, 0.00078517, -0.00332490, 0.15629455, 0.15482897, -0.43377319, 0.02910603, 0.00000000, 0.00000000, 0.00000000, 0.00000000
1, 0.5550, 204, 0.11127365, 0.13828784, -0.93110466, -7.67959356, -3.58964872, -20.40570831, 0.00000000, 0.00000000, 0.00000000, -0.16793764, 0.35314605, -18.03533554, 0.98763502, 0.00096438, -0.00327339, 0.15673360, -0.10511012, -0.13535684, -0.06887203, 0.00000000, 0.00000000, 0.00000000, 0.00000000
1, 0.5575, 205, -0.09507646, -0.01005657, -1.04798007, -4.43946886, -3.76548862, -6.06324482, 0.00000000, 0.00000000, 0.00000000, -0.17912832, 0.34368640, -18.05046654, 0.98761445, 0.00107334, -0.00320730, 0.15686385, 0.10107487, 0.01318288, 0.04800290, 0.00000000, 0.00000000, 0.00000000, 0.00000000
1, 0.5600, 206, -0.07526942, 0.15244302, -1.02604723, -0.64537358, -0.14510761, -3.20834112, 0.00000000, 0.00000000, 0.00000000, -0.18078983, 0.34329841, -18.05848694, 0.98760349, 0.00108797, -0.00320631, 0.15693294, 0.08126108, -0.14928770, 0.02607012, 0.00000000, 0.00000000, 0.00000000, 0.00000000
1, 0.5625, 207, 0.03725559, 0.00815140, -0.97668684, 3.36820078, -1.16774774, -11.18675327, 0.00000000, 0.00000000, 0.00000000, -0.17253615, 0.34029275, -18.08644676, 0.98756528, 0.00102018, -0.00316935, 0.15717417, -0.03131639, -0.00514014, -0.02329099, 0.00000000, 0.00000000, 0.00000000, 0.00000000
1, 0.5650, 208, -0.07546693, 0.39321202, -0.97514015, 3.57021976, -3.21038604, -8.54246998, 0.00000000, 0.00000000, 0.00000000, -0.16373581, 0.33220413, -18.10777855, 0.98753631, 0.00095486, -0.00308775, 0.15735839, 0.08126495, -0.39035434, -0.02483892, 0.00000000, 0.00000000, 0.00000000, 0.00000000
1, 0.5675, 209, 0.11242296, -0.06438766, -1.01444113, 2.25932002, 1.02857375, -16.07426453, 0.00000000, 0.00000000, 0.00000000, -0.15832141, 0.33466256, -18.14797211, 0.98748112, 0.00090373, -0.00310182, 0.15770487, -0.10658206, 0.06715085, 0.01446194, 0.00000000, 0.00000000, 0.00000000, 0.00000000
1, 0.5700, 210, -0.14255321, 0.22362360, -0.99505502, -2.62580538, -2.64098239, -13.98927021, 0.00000000, 0.00000000, 0.00000000, -0.16508806, 0.32796136, -18.18292618, 0.98743296, 0.00097033, -0.00305368, 0.15800601, 0.14827718, -0.22074233, -0.00492448, 0.00000000, 0.00000000, 0.00000000, 0.00000000
1, 0.5725, 211, 0.12418932, 0.06297205, -1.03658628, -8.21347523, -1.33989310, -15.02954960, 0.00000000, 0.00000000, 0.00000000, -0.18583564, 0.32449657, -18.22048950, 0.98738104, 0.00115289, -0.00305281, 0.15832920, -0.11852585, -0.05972867, 0.03660757, 0.00000000, 0.00000000, 0.00000000, 0.00000000
1, 0.5750, 212, 0.03916872, 0.29926360, -1.03849900, -13.56429100, -8.91967106, -4.31701851, 0.00000000, 0.00000000, 0.00000000, -0.21980497, 0.30215925, -18.23120499, 0.98736626, 0.00147618, -0.00290741, 0.15842105, -0.03389507, -0.29542735, 0.03852028, 0.00000000, 0.00000000, 0.00000000, 0.00000000
1, 0.5775, 213, -0.11296007, -0.00785615, -0.96677715, -4.83871508, -3.41393065, 1.32909667, 0.00000000, 0.00000000, 0.00000000, -0.23188432, 0.29363757, -18.22784996, 0.98737091, 0.00159213, -0.00285064, 0.15839201, 0.11808499, 0.01190323, -0.03320152, 0.00000000, 0.00000000, 0.00000000, 0.00000000
1, 0.5800, 214, 0.06190825, 0.19703571, -0.97552282, -3.76335573, 1.26261485, -14.89227009, 0.00000000, 0.00000000, 0.00000000, -0.24148452, 0.29664022, -18.26509094, 0.98731917, 0.00166976, -0.00289032, 0.15871260, -0.05673092, -0.19282109, -0.02445489, 0.00000000, 0.00000000, 0.00000000, 0.00000000
1, 0.5825, 215, 0.02049004, 0.36852884, -1.03732133, -6.39842367, -4.48103189, -21.23115921, 0.00000000, 0.00000000, 0.00000000, -0.25774986, 0.28520644, -18.31812096, 0.98724562, 0.00182443, -0.00281518, 0.15916933, -0.01551227, -0.36403033, 0.03734380, 0.00000000, 0.00000000, 0.00000000, 0.00000000
1, 0.5850, 216, 0.14532861, 0.02474013, -0.96793854, -0.13832739, -3.10085034, -15.56517124, 0.00000000, 0.00000000, 0.00000000, -0.25828651, 0.27727911, -18.35699844, 0.98719174, 0.00183914, -0.00274826, 0.15950444, -0.14048922, -0.02023225, -0.03203959, 0.00000000, 0.00000000, 0.00000000, 0.00000000
1, 0.5875, 217, -0.01769408, 0.20615619, -1.02579582, 0.28338218, -0.47677925, -4.52396488, 0.00000000, 0.00000000, 0.00000000, -0.31294358, 0.26982260, -18.37555122, 0.98716497, 0.00231993, -0.00276048, 0.15966313, 0.02240335, -0.20069438, 0.02582181, 0.00000000, 0.00000000, 0.00000000, 0.00000000
1, 0.5900, 218, -0.00141561, -0.10830065, -1.00730324, -5.24224567, -2.82600260, -2.44079590, 0.00000000, 0.00000000, 0.00000000, -0.32607740, 0.26272362, -18.38161278, 0.98715639, 0.00244282, -0.00271775, 0.15971524, 0.00600099, 0.11399171, 0.00733000, 0.00000000, 0.00000000, 0.00000000, 0.00000000
1, 0.5925, 219, -0.12944677, 0.42782116, -0.97442412, -2.94971371, -5.53783083, -17.63485718, 0.00000000, 0.00000000, 0.00000000, -0.33364806, 0.24862546, -18.42561913, 0.98709512, 0.00252669, -0.00260782, 0.16009456, 0.13378613, -0.42199811, -0.02554948, 0.00000000, 0.00000000, 0.00000000, 0.00000000
1, 0.5950, 220, 0.16267434, 0.37074718, -0.96116000, -7.69401073, -0.91938138, -30.99856949, 0.00000000, 0.00000000, 0.00000000, -0.35321748, 0.24586248, -18.50310135, 0.98698616, 0.00269736, -0.00261319, 0.16076156, -0.15838327, -0.36458254, -0.03881181, 0.00000000, 0.00000000, 0.00000000, 0.00000000
1, 0.5975, 221, 0.17980129, 0.01016225, -0.93753880, -4.78882408, 2.07853603, -21.25035095, 0.00000000, 0.00000000, 0.00000000, -0.36541986, 0.25072551, -18.55625725, 0.98691112, 0.00279440, -0.00267349, 0.16121897, -0.17542532, -0.00378458, -0.06243134, 0.00000000, 0.00000000, 0.00000000, 0.00000000
1, 0.6000, 222, -0.07203954, 0.12387199, -1.03103757, -1.64952910, 2.66079164, -14.02220154, 0.00000000, 0.00000000, 0.00000000, -0.36969927, 0.25715241, -18.59135818, 0.98686153, 0.00282137, -0.00273572, 0.16152094, 0.07652768, -0.11741963, 0.03106844, 0.00000000, 0.00000000, 0.00000000, 0.00000000
1, 0.6025, 223, 0.32234135, 0.13283844, -1.00833237, -1.25180566, -1.15834808, -31.33812141, 0.00000000, 0.00000000, 0.00000000, -0.37317804, 0.25374866, -18.66968346, 0.98675084, 0.00285427, -0.00271327, 0.16219547, -0.31791267, -0.12632540, 0.00836343, 0.00000000, 0.00000000, 0.00000000, 0.00000000
1, 0.6050, 224, 0.09353653, 0.12598632, -1.05258358, 1.66329098, -0.91173923, -33.74265671, 0.00000000, 0.00000000, 0.00000000, -0.36939126, 0.25092271, -18.75402260, 0.98663127, 0.00282369, -0.00268565, 0.16292185, -0.08915711, -0.11953934, 0.05261385, 0.00000000, 0.00000000, 0.00000000, 0.00000000
1, 0.6075, 225, 0.09353653, 0.12598632, -1.05258358, 1.66329098, -0.91173923, -33.74265671, 0.00000000, 0.00000000, 0.00000000, -0.36560029, 0.24810225, -18.83836365, 0.98651129, 0.00279311, -0.00265803, 0.16364816, -0.08920635, -0.11960553, 0.05261327, 0.00000000, 0.00000000, 0.00000000, 0.00000000
1, 0.6100, 226, 0.14358115, 0.34544197, -1.03157699, -0.60164607, 0.93078816, -22.73852730, 0.00000000, 0.00000000, 0.00000000, -0.36735162, 0.25006557, -18.89522552, 0.98642987, 0.00280405, -0.00267883, 0.16413756, -0.13921671, -0.33903056, 0.03160703, 0.00000000, 0.00000000, 0.00000000, 0.00000000
1, 0.6125, 227, 0.14358115, 0.34544197, -1.03157699, -0.60164607, 0.93078816, -22.73852730, 0.00000000, 0.00000000, 0.00000000, -0.36910492, 0.25202706, -18.95208740, 0.98634821, 0.00281499, -0.00269962, 0.16462691, -0.13918246, -0.33899999, 0.03160739, 0.00000000, 0.00000000, 0.00000000, 0.00000000
1, 0.6150, 228, 0.15662433, 0.20840462, -0.99320906, -3.16922402, -1.28189838, -18.38524818, 0.00000000, 0.00000000, 0.00000000, -0.37722871, 0.24852303, -18.99802971, 0.98628205, 0.00288888, -0.00268229, 0.16502227, -0.15228680, -0.20182085, -0.00675988, 0.00000000, 0.00000000, 0.00000000, 0.00000000
1, 0.6175, 229, 0.15662433, 0.20840462, -0.99320906, -3.16922402, -1.28189838, -18.38524818, 0.00000000, 0.00000000, 0.00000000, -0.38534963, 0.24501242, -19.04397202, 0.98621559, 0.00296276, -0.00266496, 0.16541760, -0.15234807, -0.20167911, -0.00675911, 0.00000000, 0.00000000, 0.00000000, 0.00000000
1, 0.6200, 230, -0.02882047, 0.52449870, -0.97555435, -2.82548022, -2.09685206, -4.57020473, 0.00000000, 0.00000000, 0.00000000, -0.39246151, 0.23969279, -19.05536270, 0.98619902, 0.00303139, -0.00262974, 0.16551563, 0.03300389, -0.51764905, -0.02441341, 0.00000000, 0.00000000, 0.00000000, 0.00000000
1, 0.6225, 231, -0.02882047, 0.52449870, -0.97555435, -2.82548022, -2.09685206, -4.57020473, 0.00000000, 0.00000000, 0.00000000, -0.39957234, 0.23437178, -19.06675339, 0.98618245, 0.00310001, -0.00259453, 0.16561367, 0.03291102, -0.51752496, -0.02441299, 0.00000000, 0.00000000, 0.00000000, 0.00000000
1, 0.6250, 232, -0.00276975, 0.48560891, -1.01012313, 4.59361267, 0.93795562, -4.11487484, 0.00000000, 0.00000000, 0.00000000, -0.38813064, 0.23664586, -19.07705688, 0.98616785, 0.00299803, -0.00259783, 0.16570252, 0.00689999, -0.47883499, 0.01015467, 0.00000000, 0.00000000, 0.00000000, 0.00000000
1, 0.6275, 233, 0.26928049, 0.08217900, -1.02411699, 6.25583649, 1.55747747, -10.16133404, 0.00000000, 0.00000000, 0.00000000, -0.37259689, 0.24037077, -19.10248184, 0.98613137, 0.00285838, -0.00260806, 0.16592158, -0.26508525, -0.07567607, 0.02414691, 0.00000000, 0.00000000, 0.00000000, 0.00000000
1, 0.6300, 234, -0.04020484, 0.43223462, -0.97465658, 7.93950796, 2.35267997, 3.67788553, 0.00000000, 0.00000000, 0.00000000, -0.35270926, 0.24631053, -19.09332657, 0.98614502, 0.00267884, -0.00263017, 0.16584305, 0.04450375, -0.42607877, -0.02531528, 0.00000000, 0.00000000, 0.00000000, 0.00000000
1, 0.6325, 235, 0.08724643, 0.34736988, -1.00961733, 2.02809548, -1.16453171, 11.61153603, 0.00000000, 0.00000000, 0.00000000, -0.34751484, 0.24357659, -19.06427956, 0.98618722, 0.00263875, -0.00259845, 0.16559328, -0.08299524, -0.34130475, 0.00964481, 0.00000000, 0.00000000, 0.00000000, 0.00000000
1, 0.6350, 236, -0.00707863, 0.22078522, -1.02709663, 1.15988874, -1.68687654, 15.01705265, 0.00000000, 0.00000000, 0.00000000, -0.34445673, 0.23958614, -19.02670860, 0.98624152, 0.00261904, -0.00255883, 0.16527013, 0.01126018, -0.21477340, 0.02712333, 0.00000000, 0.00000000, 0.00000000, 0.00000000
1, 0.6375, 237, -0.06950586, 0.49028528, -0.97459596, -1.28392041, -2.14285350, 9.75172329, 0.00000000, 0.00000000, 0.00000000, -0.39508402, 0.22716264, -19.00815010, 0.98626727, 0.00307310, -0.00252443, 0.16510965, 0.07347060, -0.48339000, -0.02537245, 0.00000000, 0.00000000, 0.00000000, 0.00000000
1, 0.6400, 238, -0.01421038, 0.23076911, -1.00518620, -1.41619694, -0.94083834, 7.66255808, 0.00000000, 0.00000000, 0.00000000, -0.39854887, 0.22494327, -18.98897743, 0.98629481, 0.00310654, -0.00250980, 0.16494463, 0.01813638, -0.22381330, 0.00521809, 0.00000000, 0.00000000, 0.00000000, 0.00000000
1, 0.6425, 239, -0.04499133, 0.20698781, -1.02893376, 0.78674388, -1.61437404, 6.43097305, 0.00000000, 0.00000000, 0.00000000, -0.39651936, 0.22101888, -18.97287178, 0.98631805, 0.00309507, -0.00247267, 0.16480619, 0.04884884, -0.20006742, 0.02896518, 0.00000000, 0.00000000, 0.00000000, 0.00000000
1, 0.6450, 240, -0.09717889, 0.41243398, -0.96742421, -1.09533417, -2.77310085, 2.21592069, 0.00000000, 0.00000000, 0.00000000, -0.39923647, 0.21412471, -18.96728325, 0.98632616, 0.00312849, -0.00241708, 0.16475827, 0.10091610, -0.40546623, -0.03254462, 0.00000000, 0.00000000, 0.00000000, 0.00000000
1, 0.6475, 241, -0.00995091, 0.10198279, -0.97415245, 0.77181953, 0.88250625, 7.76805401, 0.00000000, 0.00000000, 0.00000000, -0.39723405, 0.21646591, -18.94788170, 0.98635405, 0.00310830, -0.00243383, 0.16459121, 0.01372895, -0.09504989, -0.02581645, 0.00000000, 0.00000000, 0.00000000, 0.00000000
1, 0.6500, 242, -0.23055658, 0.53178209, -1.00685227, 2.13447738, 0.35696223, 4.99174690, 0.00000000, 0.00000000, 0.00000000, -0.39185062, 0.21744415, -18.93540573, 0.98637211, 0.00306082, -0.00243418, 0.16448393, 0.23435168, -0.52494311, 0.00688291, 0.00000000, 0.00000000, 0.00000000, 0.00000000
1, 0.6525, 243, -0.00353966, 0.10049675, -1.03011811, -0.15613128, -1.13062322, -1.74165952, 0.00000000, 0.00000000, 0.00000000, -0.39225727, 0.21458781, -18.93974113, 0.98636580, 0.00306833, -0.00241029, 0.16452132, 0.00728492, -0.09365069, 0.03014857, 0.00000000, 0.00000000, 0.00000000, 0.00000000
1, 0.6550, 244, -0.30783233, 0.53556746, -0.99040908, 1.38527858, -0.16465306, 0.37513974, 0.00000000, 0.00000000, 0.00000000, -0.38879058, 0.21418253, -18.93880081, 0.98636729, 0.00303909, -0.00240180, 0.16451330, 0.31157058, -0.52878201, -0.00956094, 0.00000000, 0.00000000, 0.00000000, 0.00000000
1, 0.6575, 245, -0.14751771, 0.43491369, -1.02908206, 1.38035262, -1.95810938, -9.74999619, 0.00000000, 0.00000000, 0.00000000, -0.38542959, 0.20912267, -18.96314049, 0.98633242, 0.00301692, -0.00235407, 0.16472304, 0.15116759, -0.42818677, 0.02911127, 0.00000000, 0.00000000, 0.00000000, 0.00000000
1, 0.6600, 246, -0.09076525, 0.23229602, -1.01066577, 0.31639490, -2.38761306, -9.13730431, 0.00000000, 0.00000000, 0.00000000, -0.38472068, 0.20300023, -18.98594475, 0.98629969, 0.00301917, -0.00230095, 0.16491953, 0.09430829, -0.22558153, 0.01069462, 0.00000000, 0.00000000, 0.00000000, 0.00000000
1, 0.6625, 247, -0.13472365, 0.23259456, -0.95549577, 1.42800713, 1.36679363, -7.43149328, 0.00000000, 0.00000000, 0.00000000, -0.38121712, 0.20629287, -19.00454712, 0.98627311, 0.00298389, -0.00232473, 0.16507961, 0.13832416, -0.22594123, -0.04447556, 0.00000000, 0.00000000, 0.00000000, 0.00000000
1, 0.6650, 248, -0.16271727, 0.24927095, -1.00190496, 0.98867261, -0.40617749, -4.16600466, 0.00000000, 0.00000000, 0.00000000, -0.37878278, 0.20520832, -19.01495552, 0.98625815, 0.00296429, -0.00231216, 0.16516927, 0.16629885, -0.24266009, 0.00193322, 0.00000000, 0.00000000, 0.00000000, 0.00000000
1, 0.6675, 249, -0.18445878, 0.33795491, -1.00454915, 2.06015205, 1.99321401, -6.93231487, 0.00000000, 0.00000000, 0.00000000, -0.37369534, 0.21007742, -19.03232002, 0.98623317, 0.00291313, -0.00234718, 0.16531867, 0.18812537, -0.33143285, 0.00457710, 0.00000000, 0.00000000, 0.00000000, 0.00000000
1, 0.6700, 250, -0.13326094, 0.23737602, -1.01000810, 1.71133518, 0.80912113, -7.22125244, 0.00000000, 0.00000000, 0.00000000, -0.36948356, 0.21198305, -19.05038452, 0.98620719, 0.00287376, -0.00235795, 0.16547418, 0.13696076, -0.23092747, 0.01003570, 0.00000000, 0.00000000, 0.00000000, 0.00000000
1, 0.6725, 251, -0.17535253, 0.34130323, -0.99082154, 1.91356313, 1.70518100, -5.95869398, 0.00000000, 0.00000000, 0.00000000, -0.36475545, 0.21615037, -19.06530952, 0.98618561, 0.00282674, -0.00238736, 0.16560258, 0.17912506, -0.33493713, -0.00915104, 0.00000000, 0.00000000, 0.00000000, 0.00000000
1, 0.6750, 252, -0.15133353, 0.44484094, -0.99691737, -0.26136491, -0.44890374, -8.08891010, 0.00000000, 0.00000000, 0.00000000, -0.36548489, 0.21489927, -19.08552361, 0.98615640, 0.00283441, -0.00237815, 0.16577658, 0.15508422, -0.43846211, -0.00305527, 0.00000000, 0.00000000, 0.00000000, 0.00000000
1, 0.6775, 253, -0.15110596, 0.37651011, -1.00797975, -1.10763276, 0.04017796, -8.79487133, 0.00000000, 0.00000000, 0.00000000, -0.36833644, 0.21485886, -19.10751343, 0.98612452, 0.00285855, -0.00238247, 0.16596575, 0.15485594, -0.37008151, 0.00800741, 0.00000000, 0.00000000, 0.00000000, 0.00000000
1, 0.6800, 254, -0.08330285, 0.29705164, -1.03462660, -1.29989123, -1.12120473, -11.59349251, 0.00000000, 0.00000000, 0.00000000, -0.37169397, 0.21186866, -19.13647652, 0.98608255, 0.00289118, -0.00236233, 0.16621503, 0.08700065, -0.29056451, 0.03465439, 0.00000000, 0.00000000, 0.00000000, 0.00000000
1, 0.6825, 255, -0.02521712, 0.24612536, -0.99107224, -3.40692711, -1.04029131, -14.27062130, 0.00000000, 0.00000000, 0.00000000, -0.38034230, 0.20903383, -19.17213821, 0.98603052, 0.00296898, -0.00235141, 0.16652177, 0.02886543, -0.23948723, -0.00889909, 0.00000000, 0.00000000, 0.00000000, 0.00000000
1, 0.6850, 256, -0.04608643, 0.19125584, -1.00223577, -0.76862091, -0.67898184, -6.00318098, 0.00000000, 0.00000000, 0.00000000, -0.38231835, 0.20723648, -19.18713379, 0.98600870, 0.00298829, -0.00233920, 0.16665083, 0.04970340, -0.18458325, 0.00226450, 0.00000000, 0.00000000, 0.00000000, 0.00000000
1, 0.6875, 257, -0.18739566, 0.56457263, -1.01023328, -0.33382362, 1.36722660, -8.63951874, 0.00000000, 0.00000000, 0.00000000, -0.41823792, 0.19851246, -19.21376419, 0.98596907, 0.00330951, -0.00231715, 0.16687953, 0.19086041, -0.55727321, 0.01026595, 0.00000000, 0.00000000, 0.00000000, 0.00000000
1, 0.6900, 258, -0.07406789, 0.36228037, -0.99038517, 1.63660789, 1.78240550, -7.00833893, 0.00000000, 0.00000000, 0.00000000, -0.41420788, 0.20284106, -19.23131752, 0.98594356, 0.00326817, -0.00234902, 0.16703050, 0.07760814, -0.35505125, -0.00958240, 0.00000000, 0.00000000, 0.00000000, 0.00000000
1, 0.6925, 259, -0.10721438, 0.36259246, -0.99357289, 0.18541765, 0.25276616, -0.33555636, 0.00000000, 0.00000000, 0.00000000, -0.41374737, 0.20346685, -19.23216057, 0.98594230, 0.00326328, -0.00235376, 0.16703774, 0.11076553, -0.35537133, -0.00639474, 0.00000000, 0.00000000, 0.00000000, 0.00000000
1, 0.7250, 260, -0.20428050, 0.45507330, -0.97975826, 0.35050064, 0.81937337, 30.78678322, 0.00000000, 0.00000000, 0.00000000, -0.41688696, 0.21010202, -18.47405624, 0.98702568, 0.00329653, -0.00239367, 0.16051114, 0.20794752, -0.44779748, -0.02020854, 0.00000000, 0.00000000, 0.00000000, 0.00000000
1, 0.7275, 261, -0.15068017, 0.29025736, -1.02302825, -0.40750363, 0.14500640, 27.70430565, 0.00000000, 0.00000000, 0.00000000, -0.41765124, 0.21096890, -18.40479851, 0.98712248, 0.00330335, -0.00240021, 0.15991451, 0.15436229, -0.28296816, 0.02306164, 0.00000000, 0.00000000, 0.00000000, 0.00000000
1, 0.7300, 262, -0.18002525, 0.37867537, -0.99602556, -0.30858392, -0.02345335, 23.09989738, 0.00000000, 0.00000000, 0.00000000, -0.41820988, 0.21133146, -18.34704781, 0.98720282, 0.00330886, -0.00240244, 0.15941699, 0.18371370, -0.37137640, -0.00394094, 0.00000000, 0.00000000, 0.00000000, 0.00000000
1, 0.7325, 263, -0.15341897, 0.34972396, -0.99644619, -0.28810766, 0.00637787, 19.68153763, 0.00000000, 0.00000000, 0.00000000, -0.41874850, 0.21170674, -18.29784584, 0.98727125, 0.00331402, -0.00240500, 0.15899308, 0.15711394, -0.34241554, -0.00352025, 0.00000000, 0.00000000, 0.00000000, 0.00000000
1, 0.7350, 264, -0.15186760, 0.29594937, -1.00644946, 0.15059991, 0.79897124, 16.96963882, 0.00000000, 0.00000000, 0.00000000, -0.41821444, 0.21401390, -18.25543785, 0.98733008, 0.00330711, -0.00242292, 0.15862764, 0.15560287, -0.28865033, 0.00648308, 0.00000000, 0.00000000, 0.00000000, 0.00000000
1, 0.7375, 265, -0.29940730, 0.47844788, -1.00183511, -0.31964374, -0.21672551, 13.26121902, 0.00000000, 0.00000000, 0.00000000, -0.45079958, 0.19317371, -18.22907448, 0.98736572, 0.00361724, -0.00228763, 0.15840054, 0.30277887, -0.47058019, 0.00187177, 0.00000000, 0.00000000, 0.00000000, 0.00000000
1, 0.7400, 266, -0.14084919, 0.26448035, -1.00700855, -0.08343286, 0.37903416, 9.01093388, 0.00000000, 0.00000000, 0.00000000, -0.45093197, 0.19429851, -18.20655441, 0.98739672, 0.00361728, -0.00229679, 0.15820645, 0.14424033, -0.25661024, 0.00704521, 0.00000000, 0.00000000, 0.00000000, 0.00000000
1, 0.7425, 267, -0.17921540, 0.29185629, -0.99987203, -0.42702642, 0.18201594, 7.40101719, 0.00000000, 0.00000000, 0.00000000, -0.45193669, 0.19489928, -18.18805504, 0.98742223, 0.00362548, -0.00230277, 0.15804701, 0.18261702, -0.28396863, -0.00009114, 0.00000000, 0.00000000, 0.00000000, 0.00000000
1, 0.7450, 268, -0.20473650, 0.31015077, -1.00095832, -0.06159848, -0.07888831, 5.59031773, 0.00000000, 0.00000000, 0.00000000, -0.45204321, 0.19481222, -18.17407799, 0.98744148, 0.00362680, -0.00230173, 0.15792657, 0.20813666, -0.30226132, 0.00099516, 0.00000000, 0.00000000, 0.00000000, 0.00000000
1, 0.7475, 269, -0.19807141, 0.27770752, -1.00447977, -0.25776726, 0.01334401, 2.86725545, 0.00000000, 0.00000000, 0.00000000, -0.45266327, 0.19490211, -18.16691017, 0.98745137, 0.00363216, -0.00230313, 0.15786479, 0.20147309, -0.26980719, 0.00451672, 0.00000000, 0.00000000, 0.00000000, 0.00000000
1, 0.7500, 270, -0.03707352, 0.05838095, -1.00479043, 0.04050012, -0.03283158, 0.35901502, 0.00000000, 0.00000000, 0.00000000, -0.45255899, 0.19482708, -18.16601372, 0.98745263, 0.00363139, -0.00230231, 0.15785706, 0.04047389, -0.05048244, 0.00482738, 0.00000000, 0.00000000, 0.00000000, 0.00000000
1, 0.7525, 271, 0.00433317, 0.00668357, -1.00131166, -0.09934313, -0.03118971, 0.07819999, 0.00000000, 0.00000000, 0.00000000, -0.45280665, 0.19475059, -18.16581726, 0.98745292, 0.00363363, -0.00230199, 0.15785536, -0.00093414, 0.00121927, 0.00134867, 0.00000000, 0.00000000, 0.00000000, 0.00000000
1, 0.7550, 272, 0.00677145, 0.00572027, -1.00032294, -0.16968262, -0.03097758, 0.00755495, 0.00000000, 0.00000000, 0.00000000, -0.45323080, 0.19467328, -18.16579628, 0.98745292, 0.00363739, -0.00230190, 0.15785518, -0.00337377, 0.00218997, 0.00035995, 0.00000000, 0.00000000, 0.00000000, 0.00000000
1, 0.7575, 273, 0.00480361, 0.00862710, -1.00129795, -0.09934313, -0.03118971, 0.07819999, 0.00000000, 0.00000000, 0.00000000, -0.45347846, 0.19459677, -18.16559792, 0.98745322, 0.00363963, -0.00230158, 0.15785348, -0.00140726, -0.00071254, 0.00133503, 0.00000000, 0.00000000, 0.00000000, 0.00000000
1, 0.7600, 274, 0.00526174, 0.01300376, -1.00224602, -0.24108176, -0.10227095, 0.14587528, 0.00000000, 0.00000000, 0.00000000, -0.45407993, 0.19434395, -18.16523170, 0.98745370, 0.00364517, -0.00230022, 0.15785033, -0.00186980, -0.00507871, 0.00228316, 0.00000000, 0.00000000, 0.00000000, 0.00000000
1, 0.7625, 275, -0.02029706, 0.19380079, -0.99763155, -0.31248093, -0.17356431, 0.28419563, 0.00000000, 0.00000000, 0.00000000, -0.45485878, 0.19391562, -18.16451836, 0.98745465, 0.00365249, -0.00229758, 0.15784417, 0.02368152, -0.18586217, -0.00233114, 0.00000000, 0.00000000, 0.00000000, 0.00000000
1, 0.7650, 276, -0.07912093, 0.72430837, -1.00269985, -0.17386144, -0.03706559, 0.70517957, 0.00000000, 0.00000000, 0.00000000, -0.45528743, 0.19383691, -18.16275406, 0.98745710, 0.00365633, -0.00229743, 0.15782897, 0.08250403, -0.71636236, 0.00273716, 0.00000000, 0.00000000, 0.00000000, 0.00000000
1, 0.7675, 277, -0.00152344, 0.66605651, -1.00237226, 0.25151861, -0.03346797, 0.57095003, 0.00000000, 0.00000000, 0.00000000, -0.45465377, 0.19376452, -18.16132736, 0.98745906, 0.00365099, -0.00229589, 0.15781668, 0.00490526, -0.65812159, 0.00240946, 0.00000000, 0.00000000, 0.00000000, 0.00000000
1, 0.7700, 278, -0.06060645, 0.44048619, -0.99133819, 0.76584899, 0.06699265, -2.63162351, 0.00000000, 0.00000000, 0.00000000, -0.45276144, 0.19387987, -18.16790771, 0.98745006, 0.00363440, -0.00229449, 0.15787342, 0.06399030, -0.43258426, -0.00862485, 0.00000000, 0.00000000, 0.00000000, 0.00000000
1, 0.7725, 279, -0.00654564, 0.51804006, -1.00268221, -0.13917716, 0.01346488, -5.08510494, 0.00000000, 0.00000000, 0.00000000, -0.45315242, 0.19381298, -18.18061829, 0.98743254, 0.00363760, -0.00229485, 0.15798296, 0.00992831, -0.51013130, 0.00271916, 0.00000000, 0.00000000, 0.00000000, 0.00000000
1, 0.7750, 280, 0.02368365, 0.30964005, -1.01080930, -0.34086794, -0.32211822, -6.69390011, 0.00000000, 0.00000000, 0.00000000, -0.45406100, 0.19287518, -18.19734383, 0.98740935, 0.00364639, -0.00228856, 0.15812710, -0.02031735, -0.30171531, 0.01084626, 0.00000000, 0.00000000, 0.00000000, 0.00000000
1, 0.7775, 281, -0.04185905, 0.36248064, -0.99158579, -0.06156949, -0.18604372, -6.13162565, 0.00000000, 0.00000000, 0.00000000, -0.45426643, 0.19228853, -18.21267128, 0.98738819, 0.00364867, -0.00228427, 0.15825917, 0.04521511, -0.35455233, -0.00837725, 0.00000000, 0.00000000, 0.00000000, 0.00000000
1, 0.7800, 282, 0.03484131, 0.38012001, -1.01863897, 0.06548354, -0.41620457, -3.61937785, 0.00000000, 0.00000000, 0.00000000, -0.45413309, 0.19117625, -18.22171211, 0.98737580, 0.00364887, -0.00227479, 0.15833712, -0.03150468, -0.37219408, 0.01867599, 0.00000000, 0.00000000, 0.00000000, 0.00000000
1, 0.7825, 283, -0.05211943, 0.35898772, -0.98681587, -0.58904815, -0.23569807, -0.76609379, 0.00000000, 0.00000000, 0.00000000, -0.45561209, 0.19057178, -18.22362137, 0.98737311, 0.00366241, -0.00227169, 0.15835357, 0.05544554, -0.35103598, -0.01314694, 0.00000000, 0.00000000, 0.00000000, 0.00000000
1, 0.7850, 284, -0.03001004, 0.19475394, -1.00306249, 0.75101411, 1.02484477, -0.60400319, 0.00000000, 0.00000000, 0.00000000, -0.45373964, 0.19312179, -18.22515297, 0.98737103, 0.00364273, -0.00229112, 0.15836670, 0.03338065, -0.18683486, 0.00309956, 0.00000000, 0.00000000, 0.00000000, 0.00000000
1, 0.7875, 285, -0.01013999, 0.53546774, -1.00018692, 0.45941788, 0.03131312, 1.27154469, 0.00000000, 0.00000000, 0.00000000, -0.53435427, 0.19112843, -18.22209930, 0.98737246, 0.00434016, -0.00238524, 0.15833880, 0.01347580, -0.52614170, 0.00023592, 0.00000000, 0.00000000, 0.00000000, 0.00000000
1, 0.7900, 286, 0.00185458, 0.29641518, -1.01153982, 0.19023822, 0.32975087, -1.17238402, 0.00000000, 0.00000000, 0.00000000, -0.53388846, 0.19192538, -18.22503853, 0.98736840, 0.00433498, -0.00239158, 0.15836410, 0.00149514, -0.28709725, 0.01158887, 0.00000000, 0.00000000, 0.00000000, 0.00000000
1, 0.7925, 287, 0.02948436, 0.39290947, -0.98111457, -0.31676424, 0.30992776, 0.77478719, 0.00000000, 0.00000000, 0.00000000, -0.53467393, 0.19271816, -18.22310829, 0.98737103, 0.00434069, -0.00239942, 0.15834743, -0.02612081, -0.38357794, -0.01883620, 0.00000000, 0.00000000, 0.00000000, 0.00000000
1, 0.7950, 288, -0.05190232, 0.40616858, -1.00215840, 1.08930957, 0.86433554, 2.05073929, 0.00000000, 0.00000000, 0.00000000, -0.53193337, 0.19492659, -18.21800041, 0.98737818, 0.00431413, -0.00241447, 0.15830339, 0.05530444, -0.39688489, 0.00220734, 0.00000000, 0.00000000, 0.00000000, 0.00000000
1, 0.7975, 289, 0.01406836, 0.14667167, -1.02681804, 0.47710332, 1.66619885, -2.41845942, 0.00000000, 0.00000000, 0.00000000, -0.53076166, 0.19903581, -18.22408295, 0.98736984, 0.00429823, -0.00244849, 0.15835567, -0.01059454, -0.13740835, 0.02686692, 0.00000000, 0.00000000, 0.00000000, 0.00000000
1, 0.8000, 290, -0.03606088, 0.29884955, -0.97774005, 0.05414100, -0.71257627, -1.59755456, 0.00000000, 0.00000000, 0.00000000, -0.53064007, 0.19721739, -18.22805977, 0.98736435, 0.00429961, -0.00243280, 0.15839002, 0.03950297, -0.28958839, -0.02221108, 0.00000000, 0.00000000, 0.00000000, 0.00000000
1, 0.8025, 291, -0.11284457, 0.32060519, -1.02841282, 0.40421176, 0.47334310, -1.51790452, 0.00000000, 0.00000000, 0.00000000, -0.52964264, 0.19836554, -18.23186874, 0.98735905, 0.00428935, -0.00244145, 0.15842277, 0.11630669, -0.31136137, 0.02846152, 0.00000000, 0.00000000, 0.00000000, 0.00000000
1, 0.8050, 292, -0.10082695, 0.45913231, -0.98620951, 0.49851984, 1.20766759, -5.76931190, 0.00000000, 0.00000000, 0.00000000, -0.52844673, 0.20125134, -18.24631691, 0.98733908, 0.00427474, -0.00246521, 0.15854718, 0.10433944, -0.44990936, -0.01374179, 0.00000000, 0.00000000, 0.00000000, 0.00000000
1, 0.8075, 293, -0.13783732, 0.24599916, -0.99879903, -0.33216700, 0.32021371, -8.43506241, 0.00000000, 0.00000000, 0.00000000, -0.52935141, 0.20185715, -18.26741219, 0.98730981, 0.00428124, -0.00247246, 0.15872888, 0.14136039, -0.23676042, -0.00115210, 0.00000000, 0.00000000, 0.00000000, 0.00000000
1, 0.8100, 294, -0.10882330, 0.27772895, -1.00132525, 1.12018728, 1.43177843, -15.10977650, 0.00000000, 0.00000000, 0.00000000, -0.52668518, 0.20508829, -18.30521774, 0.98725754, 0.00425297, -0.00249801, 0.15905453, 0.11240279, -0.26853681, 0.00137389, 0.00000000, 0.00000000, 0.00000000, 0.00000000
1, 0.8125, 295, -0.10255884, 0.23606832, -1.00538397, 0.15514930, 0.83381486, -19.10149384, 0.00000000, 0.00000000, 0.00000000, -0.52646905, 0.20673381, -18.35298920, 0.98719108, 0.00424778, -0.00251366, 0.15946603, 0.10616702, -0.22687989, 0.00543267, 0.00000000, 0.00000000, 0.00000000, 0.00000000
1, 0.8150, 296, -0.05495088, 0.36734989, -1.00432944, -0.52263546, -0.52598828, -23.44203377, 0.00000000, 0.00000000, 0.00000000, -0.52798617, 0.20487955, -18.41158104, 0.98710936, 0.00426215, -0.00250198, 0.15997081, 0.05852669, -0.35813498, 0.00437832, 0.00000000, 0.00000000, 0.00000000, 0.00000000
1, 0.8175, 297, -0.07483870, 0.18426870, -0.99909383, -0.47254837, -0.48574370, -20.02246666, 0.00000000, 0.00000000, 0.00000000, -0.52934581, 0.20320335, -18.46162605, 0.98703945, 0.00427512, -0.00249131, 0.16040193, 0.07838527, -0.17503010, -0.00085717, 0.00000000, 0.00000000, 0.00000000, 0.00000000
1, 0.8200, 298, -0.04006733, 0.34271440, -1.00725770, -0.46404147, 0.22626735, -21.76330757, 0.00000000, 0.00000000, 0.00000000, -0.53069890, 0.20326568, -18.51603699, 0.98696309, 0.00428550, -0.00249577, 0.16087055, 0.04361499, -0.33345219, 0.00730682, 0.00000000, 0.00000000, 0.00000000, 0.00000000
1, 0.8225, 299, -0.04006733, 0.34271440, -1.00725770, -0.46404147, 0.22626735, -21.76330757, 0.00000000, 0.00000000, 0.00000000, -0.53205204, 0.20332666, -18.57044983, 0.98688656, 0.00429588, -0.00250024, 0.16133915, 0.04361605, -0.33342859, 0.00730711, 0.00000000, 0.00000000, 0.00000000, 0.00000000
1, 0.8250, 300, 0.08676081, 0.31110460, -1.02685297, -0.41825172, -0.05232168, -5.71681929, 0.00000000, 0.00000000, 0.00000000, -0.53314847, 0.20306298, -18.58473969, 0.98686635, 0.00430538, -0.00250005, 0.16146220, -0.08321670, -0.30179960, 0.02690250, 0.00000000, 0.00000000, 0.00000000, 0.00000000
1, 0.8275, 301, 0.08676081, 0.31110460, -1.02685297, -0.41825172, -0.05232168, -5.71681929, 0.00000000, 0.00000000, 0.00000000, -0.53424478, 0.20279904, -18.59902954, 0.98684615, 0.00431488, -0.00249986, 0.16158526, -0.08322131, -0.30178046, 0.02690274, 0.00000000, 0.00000000, 0.00000000, 0.00000000
1, 0.8300, 302, -0.01554423, 0.40365255, -1.02623034, -0.57018375, -1.88729751, -3.14574671, 0.00000000, 0.00000000, 0.00000000, -0.53569752, 0.19800752, -18.60684967, 0.98683512, 0.00433398, -0.00246094, 0.16165277, 0.01900010, -0.39430305, 0.02627999, 0.00000000, 0.00000000, 0.00000000, 0.00000000
1, 0.8325, 303, -0.01554423, 0.40365255, -1.02623034, -0.57018375, -1.88729751, -3.14574671, 0.00000000, 0.00000000, 0.00000000, -0.53714967, 0.19321577, -18.61467171, 0.98682410, 0.00435309, -0.00242202, 0.16172029, 0.01891647, -0.39427784, 0.02627999, 0.00000000, 0.00000000, 0.00000000, 0.00000000
1, 0.8350, 304, -0.02322185, 0.39844361, -0.98443317, 0.91800487, 0.01332690, -4.37424183, 0.00000000, 0.00000000, 0.00000000, -0.53489161, 0.19314675, -18.62560463, 0.98680872, 0.00433351, -0.00241865, 0.16181451, 0.02659289, -0.38910818, -0.01551753, 0.00000000, 0.00000000, 0.00000000, 0.00000000
1, 0.8375, 305, -0.02322185, 0.39844361, -0.98443317, 0.91800487, 0.01332690, -4.37424183, 0.00000000, 0.00000000, 0.00000000, -0.63913846, 0.18580757, -18.63904190, 0.98678547, 0.00524130, -0.00250327, 0.16192833, 0.02646481, -0.38728896, -0.01549936, 0.00000000, 0.00000000, 0.00000000, 0.00000000
1, 0.8400, 306, -0.03145958, 0.59185952, -0.96646464, 1.36360848, 2.04255247, 2.96665645, 0.00000000, 0.00000000, 0.00000000, -0.63570523, 0.19099608, -18.63168335, 0.98679602, 0.00520457, -0.00254276, 0.16186477, 0.03479309, -0.58076477, -0.03346831, 0.00000000, 0.00000000, 0.00000000, 0.00000000
1, 0.8425, 307, -0.12134895, 0.44899014, -1.07409406, 0.04512668, 0.11383223, -0.47749051, 0.00000000, 0.00000000, 0.00000000, -0.63559639, 0.19126734, -18.63287926, 0.98679435, 0.00520322, -0.00254500, 0.16187507, 0.12468720, -0.43789729, 0.07416113, 0.00000000, 0.00000000, 0.00000000, 0.00000000
1, 0.8450, 308, -0.15149651, 0.36252719, -0.95496690, 1.07302618, 3.60184717, -8.26275063, 0.00000000, 0.00000000, 0.00000000, -0.63298482, 0.20004269, -18.65363312, 0.98676497, 0.00516786, -0.00261781, 0.16205341, 0.15498792, -0.35147983, -0.04496598, 0.00000000, 0.00000000, 0.00000000, 0.00000000
1, 0.8475, 309, 0.08578829, 0.02279015, -1.01421022, 1.68493390, 5.31817245, -4.89815807, 0.00000000, 0.00000000, 0.00000000, -0.62881708, 0.21320246, -18.66602516, 0.98674750, 0.00511306, -0.00272579, 0.16215955, -0.08206722, -0.01181552, 0.01427728, 0.00000000, 0.00000000, 0.00000000, 0.00000000
1, 0.8500, 310, -0.09039295, 0.09861319, -0.97676605, -1.43628526, 0.84890151, 10.18238068, 0.00000000, 0.00000000, 0.00000000, -0.63231277, 0.21560465, -18.64059639, 0.98678339, 0.00514037, -0.00275028, 0.16194037, 0.09415597, -0.08757757, -0.02316600, 0.00000000, 0.00000000, 0.00000000, 0.00000000
1, 0.8525, 311, -0.17206061, 0.29410383, -1.03535688, -0.81166208, 1.46436334, 11.93728447, 0.00000000, 0.00000000, 0.00000000, -0.63422877, 0.21959513, -18.61079216, 0.98682541, 0.00515196, -0.00278602, 0.16168350, 0.17589329, -0.28303483, 0.03542549, 0.00000000, 0.00000000, 0.00000000, 0.00000000
1, 0.8550, 312, -0.14764044, 0.41478807, -0.99801534, -0.46712911, -1.03303254, 2.85977721, 0.00000000, 0.00000000, 0.00000000, -0.63536924, 0.21709186, -18.60361862, 0.98683536, 0.00516548, -0.00276574, 0.16162178, 0.15142940, -0.40369910, -0.00191599, 0.00000000, 0.00000000, 0.00000000, 0.00000000
1, 0.8575, 313, -0.14086948, 0.50283235, -1.02234995, -2.41415882, -1.41411853, -2.67810202, 0.00000000, 0.00000000, 0.00000000, -0.64142960, 0.21348216, -18.61027527, 0.98682582, 0.00522261, -0.00274351, 0.16167915, 0.14459547, -0.49163774, 0.02241952, 0.00000000, 0.00000000, 0.00000000, 0.00000000
1, 0.8600, 314, -0.16527180, 0.64920139, -0.95458680, 2.86439204, 2.03532314, -11.24787998, 0.00000000, 0.00000000, 0.00000000, -0.63437486, 0.21825707, -18.63845062, 0.98678631, 0.00515443, -0.00277594, 0.16192171, 0.16908112, -0.63812989, -0.04534466, 0.00000000, 0.00000000, 0.00000000, 0.00000000
1, 0.8625, 315, -0.02702463, 0.18504591, -1.00016570, 1.65287542, 1.66618180, -9.65995693, 0.00000000, 0.00000000, 0.00000000, -0.63033569, 0.22215569, -18.66264534, 0.98675221, 0.00511355, -0.00280489, 0.16212995, 0.03090196, -0.17404479, 0.00023371, 0.00000000, 0.00000000, 0.00000000, 0.00000000
1, 0.8650, 316, -0.01401207, -0.03382571, -0.98413301, -0.99263775, 2.27834749, 6.35718107, 0.00000000, 0.00000000, 0.00000000, -0.63275516, 0.22802632, -18.64681625, 0.98677444, 0.00512647, -0.00285815, 0.16199329, 0.01799187, 0.04486906, -0.01579810, 0.00000000, 0.00000000, 0.00000000, 0.00000000
1, 0.8675, 317, -0.23271987, 0.23096894, -1.01084220, -2.59447622, 1.01445520, 14.42473602, 0.00000000, 0.00000000, 0.00000000, -0.63909703, 0.23096253, -18.61078453, 0.98682505, 0.00517784, -0.00289078, 0.16168271, 0.23675098, -0.21981497, 0.01091254, 0.00000000, 0.00000000, 0.00000000, 0.00000000
1, 0.8700, 318, -0.18320328, 0.28334960, -1.03355348, -1.32675445, 2.44494510, 3.00481343, 0.00000000, 0.00000000, 0.00000000, -0.64238358, 0.23715842, -18.60334206, 0.98683530, 0.00519759, -0.00294843, 0.16161822, 0.18734249, -0.27213830, 0.03362495, 0.00000000, 0.00000000, 0.00000000, 0.00000000
1, 0.8725, 319, -0.01741084, 0.09194575, -1.00056410, -0.84860164, 1.12619007, -5.29806519, 0.00000000, 0.00000000, 0.00000000, -0.64456034, 0.23982494, -18.61661911, 0.98681647, 0.00521223, -0.00297507, 0.16173236, 0.02159657, -0.08069640, 0.00063616, 0.00000000, 0.00000000, 0.00000000, 0.00000000
1, 0.8750, 320, -0.11020574, 0.12941910, -1.02449834, 0.57375538, 0.90201551, 5.39348221, 0.00000000, 0.00000000, 0.00000000, -0.64306933, 0.24223129, -18.60316277, 0.98683548, 0.00519635, -0.00299308, 0.16161638, 0.11443349, -0.11819579, 0.02457029, 0.00000000, 0.00000000, 0.00000000, 0.00000000
1, 0.8775, 321, -0.22563854, 0.34683713, -0.99217248, 0.45491076, 0.44451731, 1.83157659, 0.00000000, 0.00000000, 0.00000000, -0.64191264, 0.24339379, -18.59859467, 0.98684198, 0.00518487, -0.00300125, 0.16157703, 0.22988661, -0.33563405, -0.00775576, 0.00000000, 0.00000000, 0.00000000, 0.00000000
1, 0.8800, 322, -0.08387810, 0.36511213, -0.98752755, -1.73003221, -0.92185301, -10.76067162, 0.00000000, 0.00000000, 0.00000000, -0.64635128, 0.24078685, -18.62546730, 0.98680383, 0.00522607, -0.00298628, 0.16180848, 0.08808061, -0.35383150, -0.01240003, 0.00000000, 0.00000000, 0.00000000, 0.00000000
1, 0.8825, 323, -0.23801139, 0.27616504, -0.95951462, -3.15028381, 0.60193616, -10.63171387, 0.00000000, 0.00000000, 0.00000000, -0.65433908, 0.24198990, -18.65206528, 0.98676586, 0.00529246, -0.00300915, 0.16203722, 0.24223490, -0.26474503, -0.04041135, 0.00000000, 0.00000000, 0.00000000, 0.00000000
1, 0.8850, 324, -0.11152752, 0.33162439, -1.07364070, -2.66754937, 0.19935943, -20.11636925, 0.00000000, 0.00000000, 0.00000000, -0.66122037, 0.24191085, -18.70235634, 0.98669446, 0.00535050, -0.00302055, 0.16247013, 0.11574967, -0.32008433, 0.07371624, 0.00000000, 0.00000000, 0.00000000, 0.00000000
1, 0.8875, 325, -0.04723288, 0.06533800, -0.96976978, -2.55113745, 0.02365769, -15.85973644, 0.00000000, 0.00000000, 0.00000000, -0.67442292, 0.23517247, -18.74684334, 0.98663062, 0.00547258, -0.00298337, 0.16285317, 0.05133742, -0.05356749, -0.03015251, 0.00000000, 0.00000000, 0.00000000, 0.00000000
1, 0.8900, 326, -0.14395493, 0.32148331, -1.04083502, -3.35313916, -1.27450144, -11.34068203, 0.00000000, 0.00000000, 0.00000000, -0.68292117, 0.23165062, -18.77515793, 0.98658997, 0.00555002, -0.00296650, 0.16309690, 0.14799799, -0.30956447, 0.04091412, 0.00000000, 0.00000000, 0.00000000, 0.00000000
1, 0.8925, 327, -0.08945817, 0.40595138, -1.00294912, -3.50796652, -2.97377157, -8.35038948, 0.00000000, 0.00000000, 0.00000000, -0.69177371, 0.22396617, -18.79594040, 0.98656005, 0.00563665, -0.00291396, 0.16327605, 0.09336710, -0.39387804, 0.00302970, 0.00000000, 0.00000000, 0.00000000, 0.00000000
1, 0.8950, 328, -0.09027563, 0.31253314, -1.03411663, -0.24303779, -2.66097975, -10.12232685, 0.00000000, 0.00000000, 0.00000000, -0.69247830, 0.21700846, -18.82116508, 0.98652411, 0.00565200, -0.00285631, 0.16349357, 0.09406316, -0.30044755, 0.03419686, 0.00000000, 0.00000000, 0.00000000, 0.00000000
1, 0.8975, 329, -0.06538295, 0.17187904, -0.95670843, 3.02232385, -1.29813087, -12.44753456, 0.00000000, 0.00000000, 0.00000000, -0.68503934, 0.21338923, -18.85224724, 0.98648012, 0.00559236, -0.00281605, 0.16376151, 0.06910730, -0.15992326, -0.04321314, 0.00000000, 0.00000000, 0.00000000, 0.00000000
1, 0.9000, 330, -0.10025495, 0.27603799, -1.02805209, 5.57227659, 1.76565576, -2.49411702, 0.00000000, 0.00000000, 0.00000000, -0.67113239, 0.21772926, -18.85853577, 0.98647177, 0.00546628, -0.00283384, 0.16381575, 0.10405503, -0.26432487, 0.02812785, 0.00000000, 0.00000000, 0.00000000, 0.00000000
1, 0.9025, 331, -0.03374046, 0.12098296, -1.00346959, 2.11552238, 1.34153783, -4.07406950, 0.00000000, 0.00000000, 0.00000000, -0.66588271, 0.22096394, -18.86875916, 0.98645741, 0.00541621, -0.00285467, 0.16390373, 0.03759701, -0.10936150, 0.00354457, 0.00000000, 0.00000000, 0.00000000, 0.00000000
1, 0.9050, 332, -0.10586672, 0.18863069, -1.02318656, -0.15629551, -4.83883572, -0.01466621, 0.00000000, 0.00000000, 0.00000000, -0.66627312, 0.20886719, -18.86865425, 0.98645765, 0.00543687, -0.00275108, 0.16390346, 0.10951216, -0.17700240, 0.02326078, 0.00000000, 0.00000000, 0.00000000, 0.00000000
1, 0.9150, 333, 0.05062633, -0.06549729, -0.97987771, 7.76851654, 5.90971851, -4.81968069, 0.00000000, 0.00000000, 0.00000000, -0.64276904, 0.20115145, -18.89035988, 0.98642766, 0.00524508, -0.00265204, 0.16409126, -0.04711560, 0.07671543, -0.02005327, 0.00000000, 0.00000000, 0.00000000, 0.00000000
1, 0.9175, 334, -0.13662951, 0.22322403, -1.00182784, 4.36941624, 4.76728964, -3.89052248, 0.00000000, 0.00000000, 0.00000000, -0.63188118, 0.21296072, -18.90021706, 0.98641402, 0.00513420, -0.00273855, 0.16417579, 0.14034639, -0.21219598, 0.00189549, 0.00000000, 0.00000000, 0.00000000, 0.00000000
1, 0.9200, 335, -0.14405096, 0.26082951, -0.97539526, 3.28286314, 4.16494370, 0.55846083, 0.00000000, 0.00000000, 0.00000000, -0.62366909, 0.22338770, -18.89893723, 0.98641604, 0.00504860, -0.00281648, 0.16416442, 0.14794980, -0.24994473, -0.02453792, 0.00000000, 0.00000000, 0.00000000, 0.00000000
1, 0.9225, 336, 0.00516598, 0.17241788, -1.03796005, -2.34749079, -2.95883846, -1.28905511, 0.00000000, 0.00000000, 0.00000000, -0.62954986, 0.21595576, -18.90207672, 0.98641139, 0.00510980, -0.00276107, 0.16419169, -0.00139685, -0.16143049, 0.03802753, 0.00000000, 0.00000000, 0.00000000, 0.00000000
1, 0.9250, 337, -0.12624432, 0.32816616, -1.01192272, -0.36226952, -0.77306813, -2.92865896, 0.00000000, 0.00000000, 0.00000000, -0.63048297, 0.21394266, -18.90937614, 0.98640090, 0.00512054, -0.00274540, 0.16425461, 0.12997834, -0.31716251, 0.01199025, 0.00000000, 0.00000000, 0.00000000, 0.00000000
1, 0.9275, 338, 0.01453598, 0.12625216, -0.95581061, 0.57315761, 1.77341139, -6.67276525, 0.00000000, 0.00000000, 0.00000000, -0.62911308, 0.21819255, -18.92610550, 0.98637694, 0.00510225, -0.00278077, 0.16439843, -0.01072782, -0.11527240, -0.04412187, 0.00000000, 0.00000000, 0.00000000, 0.00000000
1, 0.9300, 339, -0.04503354, -0.06621131, -1.02546000, 1.78842127, 3.30463576, 2.34988642, 0.00000000, 0.00000000, 0.00000000, -0.62461960, 0.22651786, -18.92032242, 0.98638535, 0.00505177, -0.00284573, 0.16434833, 0.04898702, 0.07711267, 0.02552718, 0.00000000, 0.00000000, 0.00000000, 0.00000000
1, 0.9325, 340, -0.12854455, 0.13055290, -0.99590480, 0.92803484, 2.23399019, 4.70638895, 0.00000000, 0.00000000, 0.00000000, -0.62225276, 0.23223048, -18.90861893, 0.98640221, 0.00502350, -0.00289099, 0.16424736, 0.13259776, -0.11969288, -0.00402802, 0.00000000, 0.00000000, 0.00000000, 0.00000000
1, 0.9350, 341, -0.03878296, 0.24416284, -0.99898428, -3.21987629, 0.43058735, 1.01829588, 0.00000000, 0.00000000, 0.00000000, -0.63029224, 0.23333466, -18.90608215, 0.98640549, 0.00509118, -0.00291191, 0.16422530, 0.04285542, -0.23316255, -0.00094694, 0.00000000, 0.00000000, 0.00000000, 0.00000000
1, 0.9375, 342, 0.00933979, -0.02358933, -1.03698003, -2.31210423, -0.35142526, 3.39815044, 0.00000000, 0.00000000, 0.00000000, -0.62465775, 0.23421623, -18.89669991, 0.98641914, 0.00504165, -0.00291101, 0.16414461, -0.00525196, 0.03449135, 0.03704780, 0.00000000, 0.00000000, 0.00000000, 0.00000000
1, 0.9400, 343, -0.09174068, 0.24608162, -0.97310096, 2.11174655, -1.67231858, -2.06480622, 0.00000000, 0.00000000, 0.00000000, -0.61939901, 0.22997956, -18.90181541, 0.98641211, 0.00500233, -0.00286723, 0.16418900, 0.09575460, -0.23527142, -0.02683259, 0.00000000, 0.00000000, 0.00000000, 0.00000000
1, 0.9425, 344, 0.01921604, 0.31932488, -1.01176989, 1.18466234, -1.33821166, -1.02823222, 0.00000000, 0.00000000, 0.00000000, -0.61644751, 0.22660646, -18.90435028, 0.98640859, 0.00498169, -0.00283408, 0.16421105, -0.01526102, -0.30856612, 0.01183558, 0.00000000, 0.00000000, 0.00000000, 0.00000000
1, 0.9450, 345, -0.03500744, 0.16629699, -0.96477187, 1.44206667, -2.98307824, 3.99078870, 0.00000000, 0.00000000, 0.00000000, -0.61280316, 0.21925616, -18.89429474, 0.98642325, 0.00496110, -0.00276515, 0.16412494, 0.03883418, -0.15560187, -0.03516365, 0.00000000, 0.00000000, 0.00000000, 0.00000000
1, 0.9475, 346, -0.10997693, 0.08844755, -1.06074679, -0.32209226, -2.14649606, 2.78662729, 0.00000000, 0.00000000, 0.00000000, -0.61358196, 0.21396470, -18.88727188, 0.98643327, 0.00497555, -0.00272041, 0.16406472, 0.11371134, -0.07773882, 0.06081112, 0.00000000, 0.00000000, 0.00000000, 0.00000000
1, 0.9500, 347, -0.07183107, 0.15357068, -0.97925782, 4.22937870, 0.92075223, -2.37522578, 0.00000000, 0.00000000, 0.00000000, -0.60303086, 0.21620333, -18.89323425, 0.98642516, 0.00488138, -0.00272483, 0.16411619, 0.07560452, -0.14304608, -0.02067965, 0.00000000, 0.00000000, 0.00000000, 0.00000000
1, 0.9525, 348, -0.02349000, 0.11018844, -1.04435349, 2.48554683, -2.83052802, -4.85636663, 0.00000000, 0.00000000, 0.00000000, -0.59686184, 0.20900024, -18.90530014, 0.98640829, 0.00483831, -0.00265450, 0.16422056, 0.02713774, -0.09977153, 0.04441435, 0.00000000, 0.00000000, 0.00000000, 0.00000000
1, 0.9550, 349, -0.07665092, 0.07823980, -0.96653157, 4.46399260, 0.88452953, -6.07031059, 0.00000000, 0.00000000, 0.00000000, -0.58575761, 0.21105482, -18.92049789, 0.98638695, 0.00473943, -0.00265690, 0.16435154, 0.08033453, -0.06801666, -0.03340942, 0.00000000, 0.00000000, 0.00000000, 0.00000000
1, 0.9575, 350, 0.03095090, 0.14320417, -1.00380874, 3.02935386, 1.54781759, -3.15471840, 0.00000000, 0.00000000, 0.00000000, -0.57821363, 0.21484399, -18.92842293, 0.98637581, 0.00466887, -0.00267902, 0.16441976, -0.02720118, -0.13311268, 0.00386661, 0.00000000, 0.00000000, 0.00000000, 0.00000000
1, 0.9600, 351, -0.00368723, 0.14983669, -1.00989842, -2.56176281, 3.33361650, -3.84393001, 0.00000000, 0.00000000, 0.00000000, -0.58465517, 0.22308001, -18.93811798, 0.98636150, 0.00471226, -0.00275955, 0.16450265, 0.00758070, -0.13963279, 0.00995809, 0.00000000, 0.00000000, 0.00000000, 0.00000000
1, 0.9625, 352, -0.03019056, 0.06774521, -1.01881123, -0.42225063, -0.93041456, 7.11681461, 0.00000000, 0.00000000, 0.00000000, -0.58564180, 0.22093576, -18.92030144, 0.98638707, 0.00472426, -0.00274178, 0.16434938, 0.03404660, -0.05752409, 0.01887089, 0.00000000, 0.00000000, 0.00000000, 0.00000000
1, 0.9650, 353, 0.08521026, 0.00854940, -0.99188364, 3.08281469, 1.98002183, 11.29045582, 0.00000000, 0.00000000, 0.00000000, -0.57782489, 0.22617210, -18.89212799, 0.98642772, 0.00465015, -0.00277449, 0.16410680, -0.08126282, 0.00153529, -0.00805771, 0.00000000, 0.00000000, 0.00000000, 0.00000000
1, 0.9675, 354, 0.05085652, 0.03956573, -0.94914246, 2.97631431, 6.02256966, 27.14585876, 0.00000000, 0.00000000, 0.00000000, -0.57010746, 0.24190754, -18.82441521, 0.98652476, 0.00456289, -0.00289620, 0.16352338, -0.04663445, -0.02961573, -0.05079919, 0.00000000, 0.00000000, 0.00000000, 0.00000000
1, 0.9700, 355, -0.13387088, 0.05460403, -1.03091574, -3.39182019, -1.70887983, 30.58888817, 0.00000000, 0.00000000, 0.00000000, -0.57826626, 0.23840190, -18.74790573, 0.98663330, 0.00464005, -0.00287457, 0.16286460, 0.13803177, -0.04451165, 0.03097522, 0.00000000, 0.00000000, 0.00000000, 0.00000000
1, 0.9725, 356, 0.03436410, 0.10207365, -1.01616752, -1.44240344, -0.17220227, 23.43394661, 0.00000000, 0.00000000, 0.00000000, -0.58162850, 0.23856431, -18.68931770, 0.98671633, 0.00467024, -0.00287836, 0.16236004, -0.03020038, -0.09192258, 0.01622772, 0.00000000, 0.00000000, 0.00000000, 0.00000000
1, 0.9750, 357, 0.04345511, 0.33216503, -0.95744747, -1.62679672, -2.65139985, 19.93157959, 0.00000000, 0.00000000, 0.00000000, -0.58549041, 0.23244363, -18.63942528, 0.98678690, 0.00471340, -0.00282907, 0.16193061, -0.03939822, -0.32194662, -0.04249210, 0.00000000, 0.00000000, 0.00000000, 0.00000000
1, 0.9775, 358, 0.07718403, -0.17592049, -1.05133605, -8.36568737, -6.70158291, 24.50346565, 0.00000000, 0.00000000, 0.00000000, -0.60616404, 0.21632753, -18.57799339, 0.98687279, 0.00491566, -0.00271687, 0.16140184, -0.07340841, 0.18649977, 0.05139911, 0.00000000, 0.00000000, 0.00000000, 0.00000000
1, 0.9800, 359, -0.07690255, 0.02163776, -0.98922676, -3.38413405, 0.05136159, 28.50406647, 0.00000000, 0.00000000, 0.00000000, -0.61435479, 0.21721485, -18.50673676, 0.98697269, 0.00498665, -0.00273295, 0.16078793, 0.08069367, -0.01091554, -0.01070863, 0.00000000, 0.00000000, 0.00000000, 0.00000000
1, 0.9825, 360, 0.00701061, 0.38346803, -0.96916789, -3.77511334, -0.25192744, 23.05568504, 0.00000000, 0.00000000, 0.00000000, -0.62357420, 0.21720771, -18.44909477, 0.98705304, 0.00506745, -0.00274327, 0.16029121, -0.00321964, -0.37258497, -0.03076572, 0.00000000, 0.00000000, 0.00000000, 0.00000000
1, 0.9850, 361, 0.08574232, -0.00227326, -1.03674245, 0.53093815, -0.80220997, 25.06029892, 0.00000000, 0.00000000, 0.00000000, -0.62200987, 0.21588323, -18.38642311, 0.98714066, 0.00505732, -0.00272691, 0.15975147, -0.08197448, 0.01312909, 0.03680838, 0.00000000, 0.00000000, 0.00000000, 0.00000000
1, 0.9875, 362, 0.00705104, -0.02288624, -1.00290203, -0.71130794, 0.67284769, 30.91242409, 0.00000000, 0.00000000, 0.00000000, -0.62100697, 0.21864319, -18.30905342, 0.98724830, 0.00504669, -0.00274588, 0.15908481, -0.00323501, 0.03372457, 0.00296807, 0.00000000, 0.00000000, 0.00000000, 0.00000000
1, 0.9900, 363, 0.01338031, 0.11611148, -1.02844083, -6.71616364, 0.23323230, 29.44022369, 0.00000000, 0.00000000, 0.00000000, -0.63751554, 0.22003452, -18.23546028, 0.98734951, 0.00518877, -0.00277746, 0.15845029, -0.00954000, -0.10498508, 0.02851004, 0.00000000, 0.00000000, 0.00000000, 0.00000000
1, 0.9925, 364, 0.03734843, 0.20788462, -1.01852489, -0.20273839, 3.14361548, 27.58127403, 0.00000000, 0.00000000, 0.00000000, -0.63775277, 0.22866037, -18.16659927, 0.98744446, 0.00518060, -0.00284899, 0.15785648, -0.03335758, -0.19675413, 0.01859486, 0.00000000, 0.00000000, 0.00000000, 0.00000000
1, 0.9950, 365, 0.07344136, -0.08303671, -0.95202225, -1.99016511, -2.52741861, 21.46258545, 0.00000000, 0.00000000, 0.00000000, -0.64251637, 0.22294164, -18.11287498, 0.98751819, 0.00523084, -0.00280383, 0.15739369, -0.06955031, 0.09425045, -0.04790737, 0.00000000, 0.00000000, 0.00000000, 0.00000000
1, 0.9975, 366, 0.22675744, -0.41892248, -1.00900018, 0.49292573, -1.76709187, 31.82307053, 0.00000000, 0.00000000, 0.00000000, -0.64097679, 0.21941523, -18.03327179, 0.98762739, 0.00522434, -0.00276769, 0.15670787, -0.22292799, 0.43010944, 0.00907004, 0.00000000, 0.00000000, 0.00000000, 0.00000000
1, 1.0000, 367, -0.03227115, 0.11551017, -1.04926753, 7.03415680, 1.74800467, 48.59600449, 0.00000000, 0.00000000, 0.00000000, -0.62292039, 0.22512490, -17.91183662, 0.98779368, 0.00506386, -0.00278684, 0.15566133, 0.03620031, -0.10463849, 0.04933436, 0.00000000, 0.00000000, 0.00000000, 0.00000000
1, 1.0025, 368, 0.02786671, 0.30326578, -0.93336874, -3.82709455, -3.78850865, 45.08604813, 0.00000000, 0.00000000, 0.00000000, -0.63205302, 0.21688850, -17.79902267, 0.98794603, 0.00515646, -0.00272318, 0.15468897, -0.02408130, -0.29223469, -0.06656319, 0.00000000, 0.00000000, 0.00000000, 0.00000000
1, 1.0050, 369, 0.07173588, 0.03608255, -0.98600709, -5.48712397, 2.94115043, 47.39915085, 0.00000000, 0.00000000, 0.00000000, -0.64531362, 0.22556180, -17.68061066, 0.98810464, 0.00526198, -0.00281042, 0.15366726, -0.06779910, -0.02482004, -0.01392174, 0.00000000, 0.00000000, 0.00000000, 0.00000000
1, 1.0075, 370, -0.06596155, 0.01198086, -1.05201614, -1.25357580, 1.05865395, 50.30366898, 0.00000000, 0.00000000, 0.00000000, -0.64794821, 0.22962746, -17.55488968, 0.98827249, 0.00528237, -0.00284321, 0.15258281, 0.06996929, -0.00067237, 0.05208814, 0.00000000, 0.00000000, 0.00000000, 0.00000000
1, 1.0100, 371, -0.10479763, 0.07818672, -0.98185688, -6.78572702, -3.96313071, 31.16407967, 0.00000000, 0.00000000, 0.00000000, -0.66460609, 0.22061265, -17.47686958, 0.98837554, 0.00543994, -0.00278395, 0.15190999, 0.10864807, -0.06658752, -0.01806838, 0.00000000, 0.00000000, 0.00000000, 0.00000000
1, 1.0125, 372, 0.05577587, -0.00163499, -1.01603794, -0.13111629, -0.87978435, 17.51647949, 0.00000000, 0.00000000, 0.00000000, -0.66476578, 0.21892124, -17.43305779, 0.98843354, 0.00544461, -0.00276749, 0.15153216, -0.05195500, 0.01323700, 0.01611257, 0.00000000, 0.00000000, 0.00000000, 0.00000000
1, 1.0150, 373, 0.13110818, 0.04511794, -0.97915095, 3.46218419, 2.93328786, 30.13764954, 0.00000000, 0.00000000, 0.00000000, -0.65581739, 0.22712220, -17.35780334, 0.98853308, 0.00535844, -0.00282287, 0.15088277, -0.12714416, -0.03367212, -0.02077574, 0.00000000, 0.00000000, 0.00000000, 0.00000000
1, 1.0175, 374, -0.08771525, 0.35086018, -1.03146505, 3.48215365, 4.74866056, 37.75133133, 0.00000000, 0.00000000, 0.00000000, -0.64672780, 0.24006581, -17.26356316, 0.98865712, 0.00526538, -0.00291824, 0.15006933, 0.09190518, -0.33957306, 0.03153760, 0.00000000, 0.00000000, 0.00000000, 0.00000000
1, 1.0200, 375, 0.03504858, -0.03418562, -0.96182275, -5.17427635, -4.39704275, 34.04270554, 0.00000000, 0.00000000, 0.00000000, -0.65931386, 0.23004381, -17.17833710, 0.98876804, 0.00538921, -0.00284425, 0.14933418, -0.03103358, 0.04569248, -0.03810299, 0.00000000, 0.00000000, 0.00000000, 0.00000000
1, 1.0225, 376, 0.01447493, -0.11640761, -1.07881153, 1.92256606, 0.81781435, 40.01604462, 0.00000000, 0.00000000, 0.00000000, -0.65410316, 0.23323479, -17.07832718, 0.98889822, 0.00534259, -0.00286033, 0.14847113, -0.01040423, 0.12782355, 0.07888503, 0.00000000, 0.00000000, 0.00000000, 0.00000000
1, 1.0250, 377, -0.08788824, -0.12259027, -0.98177272, 1.79524434, -2.17065716, 39.02375793, 0.00000000, 0.00000000, 0.00000000, -0.64922130, 0.22891806, -16.98071098, 0.98902464, 0.00530845, -0.00281223, 0.14762902, 0.09188361, 0.13392101, -0.01815516, 0.00000000, 0.00000000, 0.00000000, 0.00000000
1, 1.0275, 378, 0.03232484, 0.00661607, -0.96991587, -2.44342399, -3.97086692, 26.89232254, 0.00000000, 0.00000000, 0.00000000, -0.65506625, 0.21975666, -16.91337204, 0.98911107, 0.00537231, -0.00273753, 0.14704815, -0.02848938, 0.00481666, -0.03001148, 0.00000000, 0.00000000, 0.00000000, 0.00000000
1, 1.0300, 379, -0.01681414, 0.19094275, -1.00200152, -0.35149151, 1.52315629, 29.52545166, 0.00000000, 0.00000000, 0.00000000, -0.65565914, 0.22440858, -16.83960724, 0.98920536, 0.00537325, -0.00277499, 0.14641114, 0.02073080, -0.17949969, 0.00207460, 0.00000000, 0.00000000, 0.00000000, 0.00000000
1, 1.0325, 380, 0.14361112, -0.04164325, -0.98144180, -1.07836342, -0.08531981, 21.69461823, 0.00000000, 0.00000000, 0.00000000, -0.65814245, 0.22481707, -16.78536987, 0.98927444, 0.00539548, -0.00277913, 0.14594285, -0.13968736, 0.05312968, -0.01848448, 0.00000000, 0.00000000, 0.00000000, 0.00000000
1, 1.0350, 381, -0.08344708, -0.42316148, -1.01298261, -7.38299465, -0.69084102, 23.07850647, 0.00000000, 0.00000000, 0.00000000, -0.67637390, 0.22376195, -16.72765732, 0.98934698, 0.00555562, -0.00279045, 0.14544421, 0.08735246, 0.43496618, 0.01305992, 0.00000000, 0.00000000, 0.00000000, 0.00000000
1, 1.0375, 382, -0.08344708, -0.42316148, -1.01298261, -7.38299465, -0.69084102, 23.07850647, 0.00000000, 0.00000000, 0.00000000, -0.66840929, 0.21746019, -16.67344475, 0.98941618, 0.00549615, -0.00272333, 0.14497668, 0.08724248, 0.43482718, 0.01305789, 0.00000000, 0.00000000, 0.00000000, 0.00000000
1, 1.0400, 383, -0.06272374, 0.19122981, -0.94684732, 0.07800770, 1.25290787, 28.83183479, 0.00000000, 0.00000000, 0.00000000, -0.66793841, 0.22143276, -16.60140800, 0.98950708, 0.00548879, -0.00275358, 0.14435445, 0.06658848, -0.17957246, -0.05307730, 0.00000000, 0.00000000, 0.00000000, 0.00000000
1, 1.0425, 384, -0.06272374, 0.19122981, -0.94684732, 0.07800770, 1.25290787, 28.83183479, 0.00000000, 0.00000000, 0.00000000, -0.66746247, 0.22540472, -16.52936935, 0.98959756, 0.00548142, -0.00278384, 0.14373216, 0.06665778, -0.17958075, -0.05307710, 0.00000000, 0.00000000, 0.00000000, 0.00000000
1, 1.0450, 385, 0.02613942, -0.31738660, -0.99061620, 4.58539248, 5.23539209, 30.58097649, 0.00000000, 0.00000000, 0.00000000, -0.65568954, 0.23937500, -16.45307159, 0.98969346, 0.00536415, -0.00288614, 0.14307280, -0.02196155, 0.32883024, -0.00930953, 0.00000000, 0.00000000, 0.00000000, 0.00000000
1, 1.0475, 386, 0.02613942, -0.31738660, -0.99061620, 4.58539248, 5.23539209, 30.58097649, 0.00000000, 0.00000000, 0.00000000, -0.64389789, 0.25332966, -16.37677383, 0.98978895, 0.00524688, -0.00298845, 0.14241339, -0.02171800, 0.32862446, -0.00931096, 0.00000000, 0.00000000, 0.00000000, 0.00000000
1, 1.0500, 387, 0.09353495, -0.36345261, -1.00589383, 0.87000972, 0.71749365, 26.81585693, 0.00000000, 0.00000000, 0.00000000, -0.64142513, 0.25587514, -16.30975723, 0.98987210, 0.00522411, -0.00300431, 0.14183444, -0.08906912, 0.37464732, 0.00596649, 0.00000000, 0.00000000, 0.00000000, 0.00000000
1, 1.0525, 388, 0.09353495, -0.36345261, -1.00589383, 0.87000972, 0.71749365, 26.81585693, 0.00000000, 0.00000000, 0.00000000, -0.63894928, 0.25841781, -16.24274254, 0.98995501, 0.00520134, -0.00302017, 0.14125545, -0.08902473, 0.37460411, 0.00596607, 0.00000000, 0.00000000, 0.00000000, 0.00000000
1, 1.0550, 389, -0.04335691, -0.15983681, -0.96163559, -4.70001984, 2.21693110, 10.98537350, 0.00000000, 0.00000000, 0.00000000, -0.65057445, 0.26426876, -16.21534348, 0.98998809, 0.00529530, -0.00308378, 0.14101812, 0.04796927, 0.17119114, -0.03828932, 0.00000000, 0.00000000, 0.00000000, 0.00000000
1, 1.0575, 390, 0.10330118, -0.40220615, -1.07176375, -0.46815804, 1.24148059, 13.75455475, 0.00000000, 0.00000000, 0.00000000, -0.65158540, 0.26776293, -16.18099403, 0.99003017, 0.00530066, -0.00311362, 0.14072114, -0.09862786, 0.41357809, 0.07183933, 0.00000000, 0.00000000, 0.00000000, 0.00000000
1, 1.0600, 391, -0.04374527, -0.13229199, -0.94688672, -4.09746933, 0.21165028, 17.61173439, 0.00000000, 0.00000000, 0.00000000, -0.66162300, 0.26879653, -16.13697243, 0.99008375, 0.00538732, -0.00313281, 0.14034049, 0.04843665, 0.14383914, -0.05303563, 0.00000000, 0.00000000, 0.00000000, 0.00000000
1, 1.0625, 392, -0.04422562, -0.14852297, -0.98301452, -2.00886536, 4.79132175, 21.21735191, 0.00000000, 0.00000000, 0.00000000, -0.66639107, 0.28138870, -16.08407021, 0.99014807, 0.00541459, -0.00324495, 0.13988261, 0.04913677, 0.16015331, -0.01690585, 0.00000000, 0.00000000, 0.00000000, 0.00000000
1, 1.0875, 393, 0.09499459, -0.27723956, -0.98401171, 2.14720869, -3.36518884, 16.34716606, 0.00000000, 0.00000000, 0.00000000, -0.51389706, 0.32466233, -15.71418381, 0.99059999, 0.00405516, -0.00341963, 0.13668817, -0.08932821, 0.28620854, -0.01593203, 0.00000000, 0.00000000, 0.00000000, 0.00000000
1, 1.0900, 394, 0.09377102, -0.25752002, -1.02678037, 13.08272552, 3.92587519, 18.47080803, 0.00000000, 0.00000000, 0.00000000, -0.48092493, 0.33487746, -15.66809177, 0.99065578, 0.00375934, -0.00346710, 0.13629030, -0.08792635, 0.26591355, 0.02683271, 0.00000000, 0.00000000, 0.00000000, 0.00000000
1, 1.0925, 395, 0.01946728, -0.07980180, -0.97338337, 8.76509190, 5.01897860, 18.14307022, 0.00000000, 0.00000000, 0.00000000, -0.45874268, 0.34779635, -15.62283707, 0.99070996, 0.00355360, -0.00355100, 0.13589923, -0.01339713, 0.08780815, -0.02656610, 0.00000000, 0.00000000, 0.00000000, 0.00000000
1, 1.0950, 396, 0.05087325, -0.37424713, -1.02382624, 1.42118835, 2.20091081, 16.85244370, 0.00000000, 0.00000000, 0.00000000, -0.45493212, 0.35363433, -15.58075333, 0.99075985, 0.00351505, -0.00359566, 0.13553527, -0.04470121, 0.38218707, 0.02387679, 0.00000000, 0.00000000, 0.00000000, 0.00000000
1, 1.0975, 397, 0.07701743, -0.22392711, -0.99021560, -0.02377836, 1.44991744, 22.13351822, 0.00000000, 0.00000000, 0.00000000, -0.45464823, 0.35769820, -15.52544880, 0.99082506, 0.00350954, -0.00362877, 0.13505694, -0.07077448, 0.23186204, -0.00973344, 0.00000000, 0.00000000, 0.00000000, 0.00000000
