"TimeStamp","FrameCounter","AccX","AccY","AccZ","GyrX","GyrY","GyrZ","QuatW","QuatX","QuatY","QuatZ","EulerX","EulerY","EulerZ","LinAccX","LinAccY","LinAccZ"
"773.77","304409.0","0.018","-1.011","-0.019","4.1252976","0.6875496","-4.2398891999999995","0.7021","-0.7019","-0.0912","-0.0765","90.12056382","1.18029348","13.63067082","-0.021","0.004","0.025"
"773.775","304410.0","0.03","-1.013","-0.017","5.3858052","1.8334656","-3.3804521999999997","0.702","-0.7021","-0.09140000000000001","-0.0765","90.14921172000001","1.19175264","13.642129979999998","-0.034","0.006","0.023"
"773.78","304411.0","0.043","-1.017","-0.003","5.6722842","3.3804521999999997","-2.0626488","0.7018","-0.7022","-0.0916","-0.0765","90.17785962","1.2032117999999998","13.659318719999998","-0.047","0.01","0.01"
"773.785","304412.0","0.052","-1.016","0.0","5.6149884000000005","3.6669312","-0.9740286","0.7016","-0.7024","-0.0917","-0.0766","90.20650752","1.20894138","13.67650746","-0.055","0.009","0.006"
"773.79","304413.0","0.061","-1.026","0.007","5.9587632","2.6929026","0.0","0.7014","-0.7026","-0.0918","-0.0766","90.240885","1.20894138","13.687966619999997","-0.064","0.019","0.0"
"773.7950000000001","304414.0","0.056","-1.024","0.009","4.9847345999999995","1.0313244","0.572958","0.7011999999999999","-0.7027","-0.0918","-0.0767","90.26380332","1.2032117999999998","13.6936962","-0.059","0.017","-0.001"
"773.8000000000001","304415.0","0.05","-1.023","0.008","3.8388186","-1.0886202","0.7448454","0.7011000000000001","-0.7028","-0.0921","-0.0763","90.28672164","1.24904844","13.687966619999997","-0.053","0.017","0.0"
"773.8050000000001","304416.0","0.043","-1.02","0.007","2.86479","-3.9534102000000004","0.4010706","0.7011000000000001","-0.7029","-0.092","-0.0762","90.2981808","1.24904844","13.67077788","-0.045","0.013","0.001"
"773.8100000000001","304417.0","0.032","-1.013","0.004","2.4637194","-6.2452422","-0.1145916","0.701","-0.7030000000000001","-0.0918","-0.076","90.30963996","1.24904844","13.6364004","-0.034","0.006","0.004"
"773.815","304418.0","0.021","-1.01","0.006","2.578311","-7.2765666","-0.6302538","0.701","-0.7031","-0.0916","-0.0758","90.32109912","1.24904844","13.602022920000001","-0.024","0.003","0.002"
"773.82","304419.0","0.019","-1.005","0.006","3.8961144","-7.8495246000000005","-0.9167328","0.7009000000000001","-0.7033","-0.09140000000000001","-0.0755","90.34401744","1.25477802","13.56191586","-0.021","0.0","0.002"
"773.825","304420.0","0.013","-1.007","0.012","5.6149884000000005","-8.193299399999999","-0.6875496","0.7007","-0.7035","-0.0912","-0.0752","90.37266534","1.2605076","13.521808799999999","-0.015","0.0","-0.002"
"773.83","304421.0","0.0","-1.01","0.02","5.72958","-7.2192708","-0.286479","0.7006","-0.7037","-0.091","-0.0749","90.40131324000001","1.2605076","13.487431320000002","-0.001","0.004","-0.01"
"773.835","304422.0","-0.007","-1.012","0.023","4.9847345999999995","-5.0420304","-0.1718874","0.7003999999999999","-0.7038","-0.09090000000000001","-0.0747","90.42423156","1.2605076","13.45878342","0.005","0.006","-0.012"
"773.84","304423.0","-0.004","-1.013","0.026","4.4690724","-2.6929026","-0.1145916","0.7003","-0.704","-0.0908","-0.0746","90.44714988","1.2605076","13.447324259999998","0.002","0.007","-0.015"
"773.845","304424.0","0.002","-1.024","0.023","4.7555514","-1.0886202","0.0","0.7001999999999999","-0.7041000000000001","-0.0908","-0.0746","90.47006819999999","1.2605076","13.44159468","-0.004","0.018","-0.012"
"773.85","304425.0","0.004","-1.028","0.026","4.5263682","0.1718874","0.1718874","0.6999","-0.7043999999999999","-0.0908","-0.0745","90.51017526000001","1.26623718","13.44159468","-0.006","0.022","-0.014"
"773.855","304426.0","0.009","-1.029","0.027","4.6982556","0.9740286","0.1718874","0.6998","-0.7045","-0.09090000000000001","-0.0745","90.53309358","1.26623718","13.447324259999998","-0.011","0.023","-0.014"
"773.86","304427.0","0.015","-1.035","0.033","4.7555514","1.0313244","0.286479","0.6996","-0.7047","-0.09090000000000001","-0.0746","90.5560119","1.26623718","13.453053839999999","-0.016","0.028","-0.02"
"773.865","304428.0","0.023","-1.033","0.037","3.3804521999999997","1.4896908","0.4010706","0.6995","-0.7048","-0.091","-0.0746","90.57320064","1.2605076","13.45878342","-0.025","0.026","-0.024"
"773.87","304429.0","0.03","-1.032","0.035","2.9220857999999996","0.859437","0.6302538","0.6994","-0.7048","-0.091","-0.0747","90.59038938","1.2605076","13.464513","-0.032","0.026","-0.021"
"773.875","304430.0","0.029","-1.034","0.024","2.86479","-0.6875496","1.2032118","0.6993","-0.7049000000000001","-0.09090000000000001","-0.0747","90.60184854","1.25477802","13.45878342","-0.031","0.028","-0.01"
"773.88","304431.0","0.025","-1.024","-0.001","3.2658606","-3.5523396","1.2605076","0.6992","-0.7051000000000001","-0.0908","-0.0746","90.61903728000001","1.24904844","13.44159468","-0.028","0.017","0.015"
"773.885","304432.0","0.04","-1.031","0.055","0.859437","-1.2605076","1.0886202","0.6992","-0.7051000000000001","-0.0907","-0.0746","90.62476686","1.24331886","13.435865100000001","-0.042","0.025","-0.04"
"773.89","304433.0","0.033","-1.038","0.061","-2.291832","0.286479","2.0626488","0.6993","-0.705","-0.0907","-0.0747","90.6133077","1.2318597","13.435865100000001","-0.036","0.032","-0.047"
"773.895","304434.0","0.019","-1.03","0.034","1.0886202","-3.4950438","2.6356068","0.6992","-0.7051000000000001","-0.0905","-0.0746","90.61903728000001","1.22040054","13.418676360000001","-0.022","0.023","-0.02"
"773.9","304435.0","0.019","-1.03","0.026","2.8074942000000003","-2.4064236","2.9220857999999996","0.6990999999999999","-0.7051999999999999","-0.09040000000000001","-0.0745","90.6419556","1.22040054","13.4072172","-0.022","0.023","-0.011"
"773.905","304436.0","0.018","-1.02","0.032","2.7501984","-2.5210152","3.0366774","0.6990000000000001","-0.7053","-0.0903","-0.0745","90.65341476","1.2032117999999998","13.39575804","-0.021","0.014","-0.018"
"773.91","304437.0","0.023","-1.022","0.041","2.6929026","-4.4690724","3.151269","0.6990000000000001","-0.7054","-0.09","-0.0745","90.66487392","1.18602306","13.372839720000002","-0.026","0.016","-0.026"
"773.915","304438.0","0.014","-1.024","0.043","1.9480572","-4.297185","3.4950438","0.6989","-0.7055","-0.0898","-0.0744","90.67633308","1.1688343199999998","13.3499214","-0.018","0.018","-0.028"
"773.9200000000001","304439.0","0.004","-1.026","0.035","1.5469865999999999","-4.010706000000001","3.5523396","0.6989","-0.7056","-0.0896","-0.0744","90.68206266","1.15164558","13.33273266","-0.008","0.02","-0.02"
"773.9250000000001","304440.0","0.001","-1.021","0.034","1.6042824","-4.6982556","3.3231564000000002","0.6988000000000001","-0.7057","-0.0893","-0.0744","90.69352182","1.13445684","13.30408476","-0.005","0.015","-0.018"
"773.9300000000001","304441.0","-0.004","-1.02","0.029","2.9220857999999996","-5.9587632","3.3804521999999997","0.6987","-0.7058","-0.0891","-0.0743","90.70498097999999","1.12299768","13.275436860000003","0.0","0.014","-0.013"
"773.9350000000001","304442.0","-0.015","-1.024","0.038","2.7501984","-5.5576926","3.724227","0.6987","-0.7059","-0.0888","-0.0742","90.72216972","1.10007936","13.246788959999998","0.011","0.018","-0.021"
"773.94","304443.0","-0.018","-1.021","0.036","1.3178034","-4.5263682","3.3231564000000002","0.6986","-0.706","-0.0885","-0.0742","90.7278993","1.0886202","13.223870639999998","0.013","0.015","-0.02"
"773.945","304444.0","-0.018","-1.021","0.044","0.6875496","-3.4950438","3.437748","0.6986","-0.706","-0.0883","-0.0741","90.7278993","1.07143146","13.206681900000001","0.013","0.015","-0.027"
"773.95","304445.0","-0.015","-1.022","0.043","-0.3437748","-2.6929026","3.6096354","0.6985","-0.7062","-0.0881","-0.0742","90.75081761999999","1.03705398","13.19522274","0.01","0.016","-0.027"
"773.955","304446.0","-0.028","-1.021","0.048","-1.145916","-2.3491278","4.068001799999999","0.6985","-0.7062","-0.0879","-0.0743","90.74508804","1.0198652400000001","13.18376358","0.022","0.015","-0.031"
"773.96","304447.0","-0.032","-1.02","0.043","-1.8907614000000001","-1.145916","3.6669312","0.6986","-0.7061","-0.0877","-0.0744","90.73362888","1.0026765","13.17230442","0.026","0.014","-0.026"
"773.965","304448.0","-0.025","-1.019","0.039","-2.3491278","-0.286479","3.3231564000000002","0.6986","-0.7061","-0.0876","-0.0745","90.72216972","0.98548776","13.17230442","0.019","0.013","-0.023"
"773.97","304449.0","-0.021","-1.017","0.038","-2.86479","0.572958","3.0366774","0.6987","-0.706","-0.0875","-0.0746","90.70498097999999","0.9682990200000001","13.178034","0.014","0.011","-0.022"
"773.975","304450.0","-0.015","-1.016","0.035","-3.2085648","1.0886202","2.86479","0.6988000000000001","-0.7059","-0.0874","-0.0747","90.68779224","0.95683986","13.18376358","0.008","0.01","-0.019"
"773.98","304451.0","-0.01","-1.015","0.033","-3.3231564000000002","1.2605076","2.9793816","0.6989","-0.7058","-0.0874","-0.0749","90.6706035","0.9396511200000001","13.189493160000001","0.003","0.009","-0.017"
"773.985","304452.0","-0.008","-1.019","0.038","-3.4950438","1.432395","3.151269","0.6990000000000001","-0.7057","-0.0873","-0.075","90.65341476","0.92246238","13.19522274","0.0","0.013","-0.023"
"773.99","304453.0","0.0","-1.02","0.044","-3.9534102000000004","1.9480572","3.3231564000000002","0.6990999999999999","-0.7056","-0.0873","-0.0752","90.63622602000001","0.9052736400000001","13.200952319999999","-0.007","0.014","-0.029"
"773.995","304454.0","0.006","-1.021","0.048","-3.3231564000000002","1.6042824","3.7815228000000003","0.6992","-0.7055","-0.0872","-0.0754","90.61903728000001","0.8880849","13.21241148","-0.014","0.014","-0.034"
"774.0","304455.0","0.005","-1.025","0.053","-3.0939731999999998","1.432395","4.2398891999999995","0.6990999999999999","-0.7056","-0.0872","-0.0755","90.62476686","0.87662574","13.218141059999999","-0.013","0.019","-0.039"
"774.005","304456.0","0.005","-1.024","0.054","-3.724227","2.0626488","4.5263682","0.6992","-0.7055","-0.0871","-0.0757","90.60757812","0.8537074199999999","13.22960022","-0.014","0.018","-0.04"
"774.01","304457.0","0.012","-1.02","0.051","-1.8907614000000001","1.718874","4.8128472","0.6992","-0.7054","-0.087","-0.0759","90.59611896","0.8307891","13.235329799999999","-0.022","0.013","-0.037"
"774.015","304458.0","0.012","-1.031","0.059","-0.2291832","0.0","5.3285094","0.6992","-0.7054","-0.0868","-0.0761","90.59611896","0.8021412000000001","13.235329799999999","-0.021","0.024","-0.045"
"774.02","304459.0","0.003","-1.032","0.059","-1.3750992","-0.0572958","5.3858052","0.6992","-0.7054","-0.0866","-0.0762","90.59038938","0.7734933","13.235329799999999","-0.013","0.025","-0.044"
"774.025","304460.0","0.002","-1.03","0.052","-1.6615782000000001","0.0","5.2139178","0.6993","-0.7054","-0.0864","-0.0764","90.57893021999999","0.75057498","13.235329799999999","-0.013","0.023","-0.039"
"774.03","304461.0","-0.002","-1.028","0.061","-1.8907614000000001","-0.9167328","5.156622","0.6993","-0.7053","-0.0863","-0.0765","90.57320064","0.72192708","13.22960022","-0.008","0.022","-0.047"
"774.035","304462.0","-0.006","-1.025","0.056","-2.9793816","-0.6302538","4.9847345999999995","0.6994","-0.7053","-0.0861","-0.0767","90.5560119","0.69900876","13.223870639999998","-0.004","0.018","-0.042"
"774.04","304463.0","-0.007","-1.025","0.052","-3.724227","-0.859437","4.6409598","0.6995","-0.7051999999999999","-0.0859","-0.07680000000000001","90.53882315999999","0.67609044","13.218141059999999","-0.004","0.019","-0.039"
"774.0450000000001","304464.0","-0.004","-1.018","0.052","-3.5523396","-0.9740286","4.2398891999999995","0.6996","-0.7051000000000001","-0.0857","-0.0769","90.51590483999999","0.65317212","13.21241148","-0.007","0.012","-0.039"
"774.0500000000001","304465.0","-0.005","-1.024","0.05","-2.1199445999999997","-2.291832","4.1825934","0.6995","-0.7051999999999999","-0.08549999999999999","-0.0769","90.53309358","0.63598338","13.200952319999999","-0.006","0.018","-0.037"
"774.0550000000001","304466.0","-0.011","-1.027","0.051","-3.3804521999999997","-2.4637194","3.8961144","0.6996","-0.7051000000000001","-0.0853","-0.077","90.51590483999999","0.61879464","13.189493160000001","-0.001","0.021","-0.038"
"774.0600000000001","304467.0","-0.009","-1.024","0.043","-4.6409598","-1.0313244","3.5523396","0.6998","-0.705","-0.0852","-0.0771","90.49298652","0.6016058999999999","13.18376358","-0.003","0.018","-0.031"
"774.065","304468.0","-0.004","-1.027","0.048","-4.9847345999999995","-0.1145916","3.4950438","0.6999","-0.7048","-0.0851","-0.0772","90.46433862","0.5844171599999999","13.18376358","-0.009","0.021","-0.036"
"774.07","304469.0","0.003","-1.032","0.051","-6.4171296","0.9167328","3.3231564000000002","0.7001000000000001","-0.7046","-0.08499999999999999","-0.07730000000000001","90.42996114","0.56722842","13.189493160000001","-0.017","0.026","-0.04"
"774.075","304470.0","0.009","-1.03","0.048","-7.2765666","0.9740286","3.437748","0.7003","-0.7043999999999999","-0.0849","-0.0775","90.39558366","0.55003968","13.189493160000001","-0.023","0.023","-0.037"
"774.08","304471.0","0.015","-1.03","0.045","-6.875496","-0.3437748","3.6096354","0.7005","-0.7041999999999999","-0.0847","-0.0776","90.36120618","0.53285094","13.189493160000001","-0.03","0.023","-0.035"
"774.085","304472.0","0.007","-1.031","0.041","-7.1046792","-2.6356068","3.724227","0.7007","-0.704","-0.08449999999999999","-0.0777","90.3268287","0.5156622","13.178034","-0.022","0.024","-0.032"
"774.09","304473.0","-0.003","-1.029","0.033","-8.479778399999999","-3.437748","3.6096354","0.701","-0.7038","-0.0842","-0.0777","90.28099205999999","0.4984734599999999","13.160845260000002","-0.011","0.023","-0.024"
"774.095","304474.0","-0.009","-1.024","0.025","-9.453807000000001","-4.010706000000001","3.437748","0.7013","-0.7035","-0.08399999999999999","-0.0777","90.23515542","0.48128472","13.13792694","-0.006","0.018","-0.017"
"774.1","304475.0","-0.011","-1.02","0.021","-10.1413566","-3.8388186","2.9793816","0.7016","-0.7032","-0.0838","-0.0777","90.1835892","0.46982556000000003","13.1207382","-0.004","0.013","-0.014"
"774.105","304476.0","-0.012","-1.018","0.014","-10.313244","-3.724227","2.9220857999999996","0.7019","-0.7030000000000001","-0.08349999999999999","-0.0777","90.13202298","0.45263682000000005","13.09781988","-0.003","0.011","-0.008"
"774.11","304477.0","-0.021","-1.011","0.007","-10.599723","-4.2398891999999995","2.9220857999999996","0.7022999999999999","-0.7026","-0.0833","-0.0777","90.08045675999999","0.44117765999999997","13.07490156","0.004","0.004","-0.001"
"774.115","304478.0","-0.03","-1.004","0.0","-11.1153852","-4.1252976","2.8074942000000003","0.7026","-0.7022999999999999","-0.08299999999999999","-0.0777","90.02316096","0.4297185","13.05771282","0.013","-0.001","0.005"
"774.12","304479.0","-0.033","-0.995","-0.008","-11.1153852","-3.7815228000000003","2.7501984","0.7030000000000001","-0.702","-0.0828","-0.0777","89.96586515999999","0.41252975999999997","13.034794499999999","0.016","-0.01","0.011"
"774.125","304480.0","-0.036","-0.993","-0.013","-11.0580894","-3.6669312","2.6929026","0.7033","-0.7017","-0.08249999999999999","-0.0777","89.90856936","0.40107060000000005","13.017605759999999","0.019","-0.013","0.016"
"774.13","304481.0","-0.041","-0.989","-0.023","-11.688343199999998","-3.6096354","2.8074942000000003","0.7037","-0.7013","-0.0823","-0.0777","89.85127356000001","0.38961144000000003","13.00041702","0.023","-0.017","0.025"
"774.135","304482.0","-0.042","-0.986","-0.031","-11.45916","-3.3231564000000002","2.6929026","0.704","-0.701","-0.08209999999999999","-0.0777","89.79397776","0.3724227","12.98322828","0.025","-0.02","0.031"
"774.14","304483.0","-0.039","-0.988","-0.03","-11.1153852","-3.8388186","2.5210152","0.7043999999999999","-0.7007","-0.0818","-0.0777","89.73668196000001","0.36096354","12.96030996","0.021","-0.017","0.029"
"774.145","304484.0","-0.044","-0.979","-0.032","-10.1986524","-4.583664","2.4637194","0.7047","-0.7003999999999999","-0.08159999999999999","-0.0777","89.68511574","0.34950438","12.937391640000001","0.026","-0.027","0.03"
"774.15","304485.0","-0.049","-0.977","-0.039","-7.9641162","-6.2452422","2.4064236","0.705","-0.7001000000000001","-0.08120000000000001","-0.0777","89.62781994000001","0.32658606","12.90874374","0.031","-0.028","0.037"
"774.155","304486.0","-0.052","-0.982","-0.043","-7.448454","-6.6463128000000005","2.2345362","0.7053","-0.6999","-0.0809","-0.0776","89.59344246","0.3151269","12.874366259999999","0.033","-0.023","0.04"
"774.16","304487.0","-0.051","-0.985","-0.043","-7.161975","-5.844171599999999","2.1772404","0.7055","-0.6997","-0.08070000000000001","-0.0775","89.55333540000001","0.30366773999999996","12.845718360000001","0.032","-0.02","0.039"
"774.165","304488.0","-0.045","-0.988","-0.036","-5.5576926","-5.844171599999999","2.1199445999999997","0.7057","-0.6995","-0.0804","-0.0774","89.5246875","0.29220857999999994","12.81707046","0.026","-0.017","0.032"
"774.1700000000001","304489.0","-0.044","-0.994","-0.027","-4.583664","-5.72958","2.3491278","0.7059","-0.6994","-0.0801","-0.07730000000000001","89.50176918","0.28074942","12.78842256","0.025","-0.011","0.022"
"774.1750000000001","304490.0","-0.049","-0.992","-0.026","-4.1252976","-5.0420304","2.86479","0.706","-0.6993","-0.0799","-0.0772","89.48458044","0.26929026","12.75977466","0.03","-0.013","0.02"
"774.1800000000001","304491.0","-0.054","-0.998","-0.012","-3.8388186","-4.010706000000001","3.2658606","0.7061","-0.6992","-0.0796","-0.0772","89.46166212","0.25210151999999997","12.74258592","0.035","-0.008","0.007"
"774.1850000000001","304492.0","-0.056","-1.003","0.0","-4.4690724","-2.6929026","3.6669312","0.7062999999999999","-0.6990999999999999","-0.0794","-0.07730000000000001","89.4387438","0.23491278000000002","12.72539718","0.036","-0.002","-0.005"
"774.19","304493.0","-0.053","-1.005","0.0","-5.0420304","-1.7761698","3.724227","0.7064","-0.6990000000000001","-0.0792","-0.07730000000000001","89.41582548","0.21772404","12.719667600000001","0.033","-0.001","-0.006"
"774.195","304494.0","-0.053","-1.006","0.0","-5.844171599999999","-1.3750992","3.6669312","0.7066","-0.6988000000000001","-0.0791","-0.0774","89.38717758","0.19480572000000002","12.70820844","0.033","0.0","-0.005"
"774.2","304495.0","-0.06","-1.003","-0.005","-6.8182002","-1.432395","3.3231564000000002","0.7068","-0.6986","-0.0787","-0.0777","89.34707052","0.15469866","12.702478860000001","0.039","-0.003","-0.001"
"774.205","304496.0","-0.066","-0.996","-0.014","-7.161975","-1.6042824","2.5210152","0.7070000000000001","-0.6984","-0.0786","-0.0777","89.31269304","0.14323950000000002","12.696749280000002","0.045","-0.01","0.006"
"774.21","304497.0","-0.067","-0.99","-0.017","-7.2765666","-2.7501984","1.3178034","0.7072","-0.6982","-0.0784","-0.0777","89.27831556","0.13750992","12.67956054","0.045","-0.015","0.009"
"774.215","304498.0","-0.066","-0.984","-0.022","-7.906820400000001","-2.9793816","0.286479","0.7075","-0.6980000000000001","-0.07830000000000001","-0.0776","89.2382085","0.13750992","12.66810138","0.044","-0.022","0.012"
"774.22","304499.0","-0.058","-0.981","-0.024","-7.161975","-3.2085648","-0.4010706","0.7077","-0.6977","-0.0782","-0.0775","89.19810143999999","0.13750992","12.650912640000001","0.036","-0.024","0.014"
"774.225","304500.0","-0.056","-0.978","-0.023","-6.1879463999999995","-3.6096354","-0.8021412","0.7079","-0.6976","-0.0781","-0.0774","89.16945354","0.14323950000000002","12.6337239","0.034","-0.027","0.012"
"774.23","304501.0","-0.053","-0.982","-0.025","-5.844171599999999","-3.7815228000000003","-1.432395","0.7081000000000001","-0.6974","-0.078","-0.07730000000000001","89.14080564","0.15469866","12.610805580000001","0.031","-0.024","0.014"
"774.235","304502.0","-0.047","-0.981","-0.027","-5.9587632","-3.3231564000000002","-1.8334656","0.7083","-0.6972","-0.0779","-0.0771","89.10642816","0.16042824","12.59361684","0.025","-0.024","0.015"
"774.24","304503.0","-0.041","-0.982","-0.026","-5.443101","-2.6929026","-2.1772404","0.7085","-0.697","-0.0779","-0.077","89.07778026000001","0.1718874","12.58215768","0.019","-0.023","0.013"
"774.245","304504.0","-0.035","-0.984","-0.026","-4.4117766","-2.7501984","-2.291832","0.7087","-0.6969000000000001","-0.0779","-0.0769","89.06059152","0.18334656","12.56496894","0.014","-0.022","0.013"
"774.25","304505.0","-0.033","-0.99","-0.024","-3.3231564000000002","-3.151269","-2.2345362","0.7088","-0.6968","-0.07780000000000001","-0.07680000000000001","89.03194361999999","0.18907614","12.553509779999999","0.012","-0.015","0.011"
"774.255","304506.0","-0.028","-0.996","-0.023","-3.2085648","-3.0939731999999998","-2.1772404","0.7089000000000001","-0.6967","-0.0777","-0.0766","89.01475488","0.19480572000000002","12.53632104","0.007","-0.009","0.01"
"774.26","304507.0","-0.024","-1.0","-0.022","-2.9220857999999996","-2.578311","-1.718874","0.7091000000000001","-0.6966","-0.0777","-0.0765","89.00329572000001","0.20626487999999998","12.52486188","0.003","-0.005","0.009"
"774.265","304508.0","-0.026","-1.0","-0.02","-2.578311","-1.8907614000000001","-1.2605076","0.7091000000000001","-0.6965","-0.0777","-0.0764","88.98610698","0.21199445999999997","12.51340272","0.005","-0.005","0.007"
"774.27","304509.0","-0.028","-0.999","-0.019","-2.1199445999999997","-1.0313244","-0.6302538","0.7091999999999999","-0.6964","-0.0777","-0.0763","88.9803774","0.21772404","12.507673139999998","0.007","-0.006","0.005"
"774.275","304510.0","-0.037","-1.002","-0.015","-1.9480572","-0.5156622","0.0","0.7093","-0.6964","-0.0776","-0.0763","88.96891824000001","0.21772404","12.501943559999999","0.016","-0.003","0.001"
"774.28","304511.0","-0.048","-0.999","-0.013","-2.7501984","1.432395","0.4010706","0.7094","-0.6963","-0.0777","-0.0764","88.9517295","0.21199445999999997","12.51340272","0.028","-0.007","0.0"
"774.285","304512.0","-0.023","-1.006","-0.014","-3.3804521999999997","0.8021412","0.0","0.7095","-0.6961999999999999","-0.0777","-0.0764","88.93454076","0.21199445999999997","12.51340272","0.002","0.0","0.0"
"774.29","304513.0","-0.035","-1.006","-0.001","-2.7501984","3.151269","0.572958","0.7095","-0.6961","-0.0777","-0.0766","88.9230816","0.21199445999999997","12.53059146","0.015","0.0","-0.012"
"774.2950000000001","304514.0","-0.035","-1.006","-0.006","-2.4064236","3.5523396","0.2291832","0.7096","-0.696","-0.07780000000000001","-0.0767","88.91162244","0.21199445999999997","12.5477802","0.014","0.0","-0.009"
"774.3000000000001","304515.0","-0.027","-1.006","0.004","-3.4950438","2.0626488","-0.2291832","0.7096","-0.696","-0.0779","-0.07680000000000001","88.91162244","0.20626487999999998","12.559239360000001","0.007","0.0","-0.019"
"774.3050000000001","304516.0","-0.022","-1.003","-0.006","-3.8388186","0.4010706","-0.4010706","0.7097","-0.6959","-0.0779","-0.07680000000000001","88.89443370000001","0.21199445999999997","12.559239360000001","0.002","-0.002","-0.009"
"774.3100000000001","304517.0","-0.033","-1.006","-0.004","-2.3491278","-0.859437","-0.572958","0.7098","-0.6958","-0.0779","-0.0767","88.88297453999999","0.21199445999999997","12.559239360000001","0.013","0.0","-0.01"
"774.315","304518.0","-0.032","-1.012","0.003","-3.151269","-1.432395","-1.145916","0.7099","-0.6957","-0.0779","-0.0767","88.8657858","0.21772404","12.5477802","0.012","0.006","-0.019"
"774.32","304519.0","-0.024","-1.009","0.004","-3.3231564000000002","-1.6042824","-1.7761698","0.71","-0.6956","-0.0779","-0.0766","88.84859706","0.22918319999999998","12.542050620000001","0.004","0.003","-0.021"
"774.325","304520.0","-0.02","-1.014","0.004","-0.7448454","-2.6929026","-1.718874","0.71","-0.6956","-0.07780000000000001","-0.0764","88.84286748000001","0.24064236","12.53059146","0.0","0.008","-0.02"
"774.33","304521.0","-0.03","-1.022","0.008","-0.4010706","-3.3231564000000002","-1.2605076","0.7101","-0.6956","-0.07780000000000001","-0.0763","88.84286748000001","0.24637194","12.51340272","0.01","0.016","-0.024"
"774.335","304522.0","-0.028","-1.026","0.006","-1.8334656","-2.1772404","-1.3750992","0.7101","-0.6955","-0.0777","-0.0762","88.83140832000001","0.25210151999999997","12.501943559999999","0.008","0.019","-0.023"
"774.34","304523.0","-0.026","-1.024","0.011","-2.4064236","-1.718874","-1.2605076","0.7102","-0.6954","-0.0777","-0.0761","88.81994916","0.2578311","12.490484400000001","0.006","0.017","-0.027"
"774.345","304524.0","-0.026","-1.022","0.005","-2.9793816","-2.0626488","-0.9740286","0.7102999999999999","-0.6953","-0.0777","-0.076","88.80276042","0.26356068","12.47902524","0.007","0.016","-0.022"
"774.35","304525.0","-0.032","-1.02","0.0","-3.5523396","-1.6042824","-0.6302538","0.7102999999999999","-0.6953","-0.0776","-0.076","88.80276042","0.25210151999999997","12.473295660000002","0.012","0.014","-0.017"
"774.355","304526.0","-0.033","-1.018","-0.007","-3.8388186","-0.7448454","-0.572958","0.7104","-0.6952","-0.0775","-0.076","88.78557168","0.2578311","12.467566080000001","0.013","0.011","-0.009"
"774.36","304527.0","-0.032","-1.016","-0.005","-4.1252976","-0.1718874","-0.4010706","0.7106","-0.6950999999999999","-0.0775","-0.076","88.76265336","0.2578311","12.467566080000001","0.012","0.01","-0.012"
"774.365","304528.0","-0.032","-1.014","-0.005","-4.3544808","0.6302538","-0.4010706","0.7107","-0.6949","-0.0776","-0.076","88.73973504","0.2578311","12.473295660000002","0.013","0.008","-0.012"
"774.37","304529.0","-0.034","-1.01","-0.005","-3.8961144","1.432395","-0.1145916","0.7108","-0.6948000000000001","-0.0776","-0.0761","88.7225463","0.26356068","12.47902524","0.014","0.004","-0.013"
"774.375","304530.0","-0.036","-1.008","-0.005","-3.6096354","2.1772404","-0.1718874","0.7109","-0.6947","-0.0777","-0.0761","88.70535756","0.26356068","12.490484400000001","0.016","0.001","-0.013"
"774.38","304531.0","-0.033","-1.01","-0.007","-3.9534102000000004","2.6356068","-0.4583664","0.7110000000000001","-0.6946","-0.0777","-0.0762","88.68243924","0.26356068","12.501943559999999","0.014","0.003","-0.011"
"774.385","304532.0","-0.027","-1.013","-0.011","-4.1825934","2.578311","-1.0886202","0.7112","-0.6944","-0.07780000000000001","-0.0763","88.65952092","0.26929026","12.51340272","0.007","0.007","-0.008"
"774.39","304533.0","-0.017","-1.02","-0.005","-4.4117766","1.6615782000000001","-1.6615782000000001","0.7113","-0.6942999999999999","-0.0779","-0.0763","88.64233218000001","0.28074942","12.52486188","-0.002","0.014","-0.014"
"774.395","304534.0","-0.013","-1.018","-0.002","-4.4117766","0.2291832","-1.8907614000000001","0.7114","-0.6940999999999999","-0.078","-0.0762","88.61941386","0.29220857999999994","12.52486188","-0.005","0.011","-0.017"
"774.4","304535.0","-0.013","-1.02","0.0","-4.4117766","-0.9740286","-1.9480572","0.7115","-0.6940999999999999","-0.078","-0.0761","88.6079547","0.30366773999999996","12.519132299999999","-0.005","0.014","-0.019"
"774.405","304536.0","-0.014","-1.02","-0.005","-5.0993262","-1.2605076","-1.8334656","0.7117","-0.6939","-0.078","-0.0761","88.58503637999999","0.3151269","12.51340272","-0.003","0.014","-0.015"
"774.41","304537.0","-0.015","-1.018","-0.006","-6.0733548","-0.9167328","-1.4896908","0.7119","-0.6937","-0.078","-0.076","88.5506589","0.32085648","12.507673139999998","-0.003","0.012","-0.014"
"774.415","304538.0","-0.017","-1.017","-0.009","-6.5317212","0.0","-0.9740286","0.7121000000000001","-0.6935","-0.078","-0.076","88.52201099999999","0.32658606","12.507673139999998","0.0","0.011","-0.012"
"774.4200000000001","304539.0","-0.02","-1.014","-0.015","-6.875496","1.3750992","-0.4583664","0.7123","-0.6933","-0.0781","-0.076","88.48763352","0.32658606","12.51340272","0.002","0.008","-0.006"
"774.4250000000001","304540.0","-0.021","-1.004","-0.028","-7.2765666","3.3804521999999997","0.1145916","0.7125","-0.693","-0.0781","-0.0762","88.44752645999999","0.32658606","12.53059146","0.003","-0.001","0.004"
"774.4300000000001","304541.0","-0.024","-0.997","-0.033","-7.161975","4.1825934","0.4583664","0.7127","-0.6928","-0.0782","-0.0763","88.41314897999999","0.32658606","12.553509779999999","0.006","-0.008","0.009"
"774.4350000000001","304542.0","-0.024","-0.995","-0.033","-7.1046792","5.3285094","0.7448454","0.7129","-0.6926","-0.0784","-0.0765","88.3787715","0.32658606","12.5764281","0.006","-0.01","0.009"
"774.44","304543.0","-0.024","-0.99","-0.039","-6.1879463999999995","6.1306506","0.9167328","0.7131000000000001","-0.6923","-0.0785","-0.07680000000000001","88.34439402000001","0.32085648","12.605076","0.006","-0.015","0.014"
"774.445","304544.0","-0.03","-0.99","-0.047","-4.8128472","5.72958","1.0313244","0.7132","-0.6921999999999999","-0.0786","-0.077","88.3214757","0.3151269","12.6337239","0.011","-0.016","0.021"
"774.45","304545.0","-0.028","-0.992","-0.048","-4.1252976","5.844171599999999","0.572958","0.7134","-0.692","-0.0787","-0.0772","88.28709822","0.30939732","12.66810138","0.009","-0.014","0.022"
"774.455","304546.0","-0.027","-0.987","-0.05","-3.724227","6.4171296","0.4010706","0.7135","-0.6918","-0.0789","-0.0775","88.26990948","0.30939732","12.696749280000002","0.008","-0.019","0.023"
"774.46","304547.0","-0.027","-0.987","-0.046","-1.8907614000000001","6.5317212","0.4010706","0.7135","-0.6917","-0.0791","-0.0777","88.25845032","0.30939732","12.731126759999999","0.008","-0.018","0.02"
"774.465","304548.0","-0.023","-0.996","-0.036","-0.6875496","7.0473834","0.286479","0.7135","-0.6917","-0.07930000000000001","-0.0779","88.25272074","0.30366773999999996","12.765504240000002","0.004","-0.009","0.009"
"774.47","304549.0","-0.019","-1.003","-0.032","-1.0313244","7.3338624","0.0","0.7135","-0.6916","-0.0795","-0.0781","88.24699116","0.30939732","12.79988172","0.0","-0.002","0.005"
"774.475","304550.0","-0.015","-1.006","-0.035","-2.0053530000000004","6.5317212","-0.2291832","0.7135","-0.6915","-0.07970000000000001","-0.07830000000000001","88.24126158","0.30939732","12.834259200000002","-0.003","0.0","0.008"
"774.48","304551.0","-0.011","-1.0","-0.029","-2.291832","5.5003968","-0.7448454","0.7136","-0.6914","-0.0799","-0.0785","88.22407283999999","0.3151269","12.862907100000001","-0.007","-0.005","0.002"
"774.485","304552.0","-0.007","-1.009","-0.03","-2.0626488","3.5523396","-0.8021412","0.7136","-0.6914","-0.08","-0.0786","88.21834326000001","0.32085648","12.880095840000001","-0.011","0.002","0.002"
"774.49","304553.0","-0.014","-1.012","-0.033","-2.8074942000000003","1.6042824","-1.0886202","0.7137","-0.6913","-0.0801","-0.0786","88.20115452","0.32658606","12.88582542","-0.003","0.006","0.006"
"774.495","304554.0","-0.005","-1.015","-0.034","-3.8388186","1.6042824","-1.718874","0.7138","-0.6910999999999999","-0.08020000000000001","-0.0786","88.18396578000001","0.33231564","12.897284579999999","-0.013","0.008","0.006"
"774.5","304555.0","-0.008","-1.012","-0.042","-2.7501984","0.0","-1.8334656","0.714","-0.6909","-0.08030000000000001","-0.0785","88.15531788","0.34950438","12.897284579999999","-0.01","0.006","0.013"
"774.505","304556.0","-0.03","-1.006","-0.026","-2.7501984","-0.0572958","-1.9480572","0.7141","-0.6908000000000001","-0.08030000000000001","-0.0784","88.13812913999999","0.36096354","12.891555","0.012","0.0","-0.002"
"774.51","304557.0","-0.01","-1.008","-0.065","-4.4690724","-0.6875496","-2.86479","0.7142999999999999","-0.6907","-0.0804","-0.0784","88.11521081999999","0.3724227","12.891555","-0.007","0.001","0.035"
"774.515","304558.0","-0.001","-1.012","-0.037","-4.4690724","-0.6875496","-2.1772404","0.7144","-0.6905","-0.0804","-0.07830000000000001","88.0922925","0.38388186","12.88582542","-0.016","0.005","0.007"
"774.52","304559.0","-0.006","-1.001","-0.051","-1.5469865999999999","1.5469865999999999","-1.0886202","0.7144999999999999","-0.6905","-0.0805","-0.07830000000000001","88.08656292","0.38961144000000003","12.891555","-0.01","-0.004","0.021"
"774.525","304560.0","-0.017","-1.008","-0.039","-0.859437","1.8334656","-0.1145916","0.7144999999999999","-0.6905","-0.0805","-0.07830000000000001","88.08083334","0.39534102000000004","12.903014159999998","0.0","0.002","0.009"
"774.53","304561.0","-0.007","-1.003","-0.05","-1.8907614000000001","3.8388186","0.4010706","0.7144999999999999","-0.6904","-0.0806","-0.0785","88.07510376","0.38961144000000003","12.920202899999998","-0.009","-0.002","0.019"
"774.535","304562.0","-0.009","-1.001","-0.048","-0.8021412","5.0420304","1.432395","0.7144999999999999","-0.6902999999999999","-0.08080000000000001","-0.0787","88.06937418","0.38388186","12.948850799999999","-0.008","-0.004","0.018"
"774.54","304563.0","-0.016","-1.004","-0.04","-0.3437748","5.6149884000000005","1.8334656","0.7144999999999999","-0.6902999999999999","-0.0809","-0.0789","88.06937418","0.37815228","12.977498700000002","0.0","-0.001","0.009"
"774.5450000000001","304564.0","-0.016","-1.008","-0.041","-1.2032118","5.2712136","1.6615782000000001","0.7144999999999999","-0.6902999999999999","-0.081","-0.0791","88.05791502","0.36669312","13.00041702","-0.001","0.001","0.011"
"774.5500000000001","304565.0","-0.014","-1.012","-0.042","-1.718874","4.8128472","1.2605076","0.7146","-0.6900999999999999","-0.0811","-0.07930000000000001","88.04072628","0.36669312","13.02333534","-0.003","0.005","0.012"
"774.5550000000001","304566.0","-0.015","-1.013","-0.036","-2.291832","4.3544808","0.9167328","0.7147","-0.6900999999999999","-0.08120000000000001","-0.0795","88.02926712000001","0.36096354","13.046253660000001","-0.002","0.007","0.005"
"774.5600000000001","304567.0","-0.016","-1.014","-0.032","-3.0939731999999998","3.724227","0.4010706","0.7148","-0.6899","-0.0813","-0.0796","88.01207838","0.36096354","13.069171980000002","-0.001","0.008","0.001"
"774.565","304568.0","-0.01","-1.015","-0.033","-3.5523396","2.7501984","0.0","0.7149","-0.6898","-0.0814","-0.07970000000000001","87.99488964000001","0.36096354","13.08063114","-0.007","0.008","0.002"
"774.57","304569.0","-0.005","-1.008","-0.036","-2.4064236","1.718874","-0.286479","0.7149","-0.6897","-0.0814","-0.07980000000000001","87.98343048000001","0.36096354","13.086360719999998","-0.012","0.002","0.004"
"774.575","304570.0","-0.012","-1.012","-0.034","-1.7761698","0.3437748","0.0","0.7150000000000001","-0.6897","-0.0814","-0.07980000000000001","87.9777009","0.36669312","13.0920903","-0.005","0.006","0.002"
"774.58","304571.0","-0.007","-1.012","-0.038","-2.86479","0.286479","-0.2291832","0.7151","-0.6896","-0.0814","-0.07980000000000001","87.96051216","0.36669312","13.0920903","-0.011","0.005","0.006"
"774.585","304572.0","-0.005","-1.008","-0.044","-2.1772404","0.0","-0.1145916","0.7151","-0.6895","-0.0814","-0.07980000000000001","87.94905299999999","0.36669312","13.0920903","-0.012","0.002","0.012"
"774.59","304573.0","-0.01","-1.013","-0.037","-1.9480572","0.2291832","0.4583664","0.7152000000000001","-0.6894","-0.0814","-0.07980000000000001","87.93759384","0.36669312","13.0920903","-0.007","0.006","0.005"
"774.595","304574.0","-0.009","-1.011","-0.039","-2.2345362","1.2032118","0.4010706","0.7152999999999999","-0.6894","-0.0814","-0.0799","87.92613467999999","0.36096354","13.09781988","-0.008","0.005","0.006"
"774.6","304575.0","-0.005","-1.012","-0.037","-2.0626488","1.0886202","0.572958","0.7154","-0.6893","-0.08159999999999999","-0.07980000000000001","87.90894594","0.38388186","13.10354946","-0.012","0.005","0.004"
"774.605","304576.0","-0.005","-1.011","-0.031","-2.4637194","0.859437","0.7448454","0.7154","-0.6892","-0.08159999999999999","-0.0799","87.89748678","0.37815228","13.109279039999999","-0.012","0.005","-0.002"
"774.61","304577.0","-0.006","-1.005","-0.03","-2.4064236","1.0313244","0.8021412","0.7155","-0.6891","-0.08159999999999999","-0.0799","87.88602762000001","0.3724227","13.115008620000001","-0.011","0.0","-0.003"
"774.615","304578.0","-0.009","-1.013","-0.026","-1.0313244","0.1718874","1.145916","0.7155","-0.6891","-0.08149999999999999","-0.08","87.88029803999999","0.36669312","13.115008620000001","-0.008","0.007","-0.006"
"774.62","304579.0","-0.012","-1.013","-0.024","-1.2032118","0.572958","1.432395","0.7156","-0.689","-0.08149999999999999","-0.08","87.87456846","0.36096354","13.1207382","-0.005","0.007","-0.008"
"774.625","304580.0","-0.011","-1.016","-0.023","-1.3750992","1.8334656","1.5469865999999999","0.7156","-0.689","-0.08149999999999999","-0.0801","87.86883888","0.35523395999999996","13.126467779999999","-0.006","0.01","-0.009"
"774.63","304581.0","-0.002","-1.021","-0.018","-0.9167328","2.0626488","1.3750992","0.7156","-0.689","-0.08149999999999999","-0.08020000000000001","87.8631093","0.34950438","13.13792694","-0.015","0.015","-0.014"
"774.635","304582.0","0.006","-1.026","-0.015","-0.6302538","1.2032118","1.3750992","0.7156","-0.6889000000000001","-0.08149999999999999","-0.08030000000000001","87.85737972","0.3437748","13.143656519999999","-0.024","0.02","-0.018"
"774.64","304583.0","0.004","-1.031","-0.015","-0.8021412","-0.6302538","1.7761698","0.7156","-0.6889000000000001","-0.08149999999999999","-0.0804","87.85737972","0.33231564","13.143656519999999","-0.022","0.024","-0.018"
"774.645","304584.0","-0.004","-1.025","-0.015","-1.8334656","-1.145916","1.8907614000000001","0.7157","-0.6889000000000001","-0.0813","-0.0804","87.84592056","0.32085648","13.13792694","-0.014","0.018","-0.018"
"774.65","304585.0","-0.008","-1.026","-0.014","-2.86479","-1.8334656","1.718874","0.7157","-0.6889000000000001","-0.0813","-0.08030000000000001","87.85165014","0.32085648","13.126467779999999","-0.009","0.02","-0.019"
"774.655","304586.0","-0.009","-1.023","-0.014","-4.4690724","-2.4637194","1.718874","0.7158","-0.6888","-0.0811","-0.08030000000000001","87.82873182","0.3151269","13.115008620000001","-0.009","0.017","-0.019"
"774.66","304587.0","-0.011","-1.022","-0.019","-5.5576926","-2.0053530000000004","1.6615782000000001","0.716","-0.6886","-0.081","-0.08030000000000001","87.80008391999999","0.30366773999999996","13.10354946","-0.007","0.016","-0.015"
"774.665","304588.0","-0.013","-1.02","-0.02","-5.9014674","-1.2032118","1.718874","0.7162","-0.6884","-0.0809","-0.0804","87.76570644","0.29793816","13.09781988","-0.005","0.014","-0.015"
"774.6700000000001","304589.0","-0.018","-1.015","-0.025","-6.302538","-0.6302538","2.0053530000000004","0.7163999999999999","-0.6881999999999999","-0.08080000000000001","-0.0804","87.73705853999999","0.28647900000000004","13.09781988","-0.001","0.009","-0.01"
"774.6750000000001","304590.0","-0.022","-1.01","-0.028","-6.3598338","0.2291832","2.1772404","0.7166","-0.688","-0.08070000000000001","-0.0805","87.70268106","0.27501984","13.09781988","0.003","0.005","-0.007"
"774.6800000000001","304591.0","-0.023","-1.005","-0.035","-5.9014674","1.3750992","2.4637194","0.7167","-0.6879","-0.08070000000000001","-0.08070000000000001","87.67403316","0.26356068","13.10354946","0.003","0.0","-0.001"
"774.6850000000001","304592.0","-0.023","-1.006","-0.039","-5.2139178","2.3491278","2.6929026","0.7169","-0.6877","-0.0806","-0.08080000000000001","87.64538526","0.25210151999999997","13.115008620000001","0.003","0.0","0.001"
"774.69","304593.0","-0.021","-1.008","-0.036","-5.156622","3.3804521999999997","2.7501984","0.717","-0.6875","-0.0806","-0.081","87.62246694","0.24064236","13.132197359999997","0.001","0.002","-0.001"
"774.695","304594.0","-0.019","-1.009","-0.035","-4.8128472","3.724227","2.6356068","0.7171000000000001","-0.6874","-0.08070000000000001","-0.0813","87.59381904","0.22345362","13.15511568","-0.001","0.003","-0.003"
"774.7","304595.0","-0.01","-1.008","-0.03","-3.2658606","2.9220857999999996","2.4637194","0.7172","-0.6873","-0.08070000000000001","-0.0814","87.58808946","0.22345362","13.166574840000001","-0.009","0.002","-0.007"
"774.705","304596.0","-0.011","-1.016","-0.021","-2.4637194","1.0313244","2.6356068","0.7172","-0.6872","-0.08070000000000001","-0.08149999999999999","87.57090072000001","0.21199445999999997","13.17230442","-0.009","0.01","-0.016"
"774.71","304597.0","-0.015","-1.02","-0.018","-3.3231564000000002","0.572958","2.5210152","0.7173","-0.6871","-0.0806","-0.08159999999999999","87.55944156000001","0.20053530000000003","13.178034","-0.005","0.014","-0.02"
"774.715","304598.0","-0.012","-1.021","-0.019","-4.068001799999999","0.0","2.0053530000000004","0.7174","-0.687","-0.0805","-0.0817","87.53652324","0.18907614","13.178034","-0.008","0.016","-0.019"
"774.72","304599.0","-0.01","-1.022","-0.021","-4.583664","-0.6875496","1.8334656","0.7176","-0.6869","-0.0804","-0.0817","87.51360492","0.17761697999999998","13.17230442","-0.01","0.017","-0.017"
"774.725","304600.0","-0.007","-1.024","-0.025","-4.9847345999999995","-1.145916","1.8334656","0.7177","-0.6867","-0.08030000000000001","-0.0818","87.48495702","0.1718874","13.166574840000001","-0.013","0.018","-0.014"
"774.73","304601.0","-0.008","-1.026","-0.023","-5.0993262","-1.2605076","2.1199445999999997","0.7179","-0.6866","-0.08020000000000001","-0.0818","87.46203870000001","0.16042824","13.160845260000002","-0.012","0.02","-0.016"
"774.735","304602.0","-0.007","-1.025","-0.021","-5.3858052","-0.6875496","2.578311","0.718","-0.6864","-0.0801","-0.0819","87.4333908","0.14896908","13.160845260000002","-0.014","0.019","-0.019"
"774.74","304603.0","-0.008","-1.025","-0.021","-6.016058999999999","-0.1145916","3.0366774","0.7182000000000001","-0.6862","-0.08","-0.08199999999999999","87.4047429","0.13178034","13.15511568","-0.013","0.019","-0.02"
"774.745","304604.0","-0.011","-1.024","-0.023","-6.703608600000001","-0.1718874","3.6096354","0.7184","-0.686","-0.07980000000000001","-0.08209999999999999","87.37036542000001","0.11459159999999999","13.15511568","-0.01","0.019","-0.018"
"774.75","304605.0","-0.013","-1.024","-0.026","-6.8182002","1.0886202","4.1825934","0.7184999999999999","-0.6859","-0.07970000000000001","-0.0823","87.34171752","0.09740286000000001","13.160845260000002","-0.008","0.018","-0.016"
"774.755","304606.0","-0.011","-1.025","-0.028","-6.4744254","2.4064236","4.4117766","0.7187","-0.6857","-0.07970000000000001","-0.08249999999999999","87.30734004","0.07448454","13.178034","-0.011","0.02","-0.015"
"774.76","304607.0","-0.002","-1.031","-0.026","-5.9587632","3.2658606","4.583664","0.7189","-0.6855","-0.0796","-0.0828","87.27869214","0.057295799999999994","13.19522274","-0.021","0.025","-0.017"
"774.765","304608.0","0.005","-1.03","-0.022","-5.6149884000000005","3.724227","4.9274388","0.7190000000000001","-0.6853","-0.0796","-0.08299999999999999","87.25004424","0.028647899999999997","13.21241148","-0.029","0.024","-0.021"
"774.77","304609.0","0.005","-1.031","-0.021","-5.0993262","3.151269","5.3858052","0.7191","-0.6851","-0.0795","-0.0833","87.22712592","0.00572958","13.22960022","-0.03","0.025","-0.023"
"774.775","304610.0","0.005","-1.032","-0.017","-5.5576926","2.578311","5.9587632","0.7192999999999999","-0.6849999999999999","-0.0794","-0.0836","87.19847802","-0.01718874","13.24105938","-0.029","0.026","-0.027"
"774.78","304611.0","0.008","-1.034","-0.011","-5.9014674","2.6929026","6.0733548","0.7194","-0.6848","-0.0792","-0.0839","87.16410053999999","-0.04583664","13.25824812","-0.033","0.028","-0.034"
"774.785","304612.0","0.017","-1.038","-0.005","-5.9587632","1.3750992","6.2452422","0.7196","-0.6846","-0.0791","-0.0841","87.13545264000001","-0.08021412","13.263977700000002","-0.042","0.033","-0.04"
"774.79","304613.0","0.007","-1.041","-0.007","-6.4744254","-1.432395","6.760904399999999","0.7198","-0.6844","-0.07880000000000001","-0.0843","87.10107516000001","-0.10886202","13.25824812","-0.034","0.035","-0.039"
"774.7950000000001","304614.0","-0.005","-1.036","-0.013","-7.906820400000001","-2.86479","6.703608600000001","0.72","-0.6841999999999999","-0.0785","-0.08449999999999999","87.0609681","-0.14323950000000002","13.246788959999998","-0.021","0.031","-0.033"
"774.8000000000001","304615.0","-0.017","-1.028","-0.023","-9.110032200000001","-3.3231564000000002","6.4744254","0.7202","-0.6839999999999999","-0.0782","-0.0846","87.02659062000001","-0.17761697999999998","13.22960022","-0.01","0.023","-0.024"
"774.8050000000001","304616.0","-0.023","-1.023","-0.03","-9.6829902","-2.86479","6.302538","0.7205","-0.6837","-0.0779","-0.0847","86.9750244","-0.20626487999999998","13.218141059999999","-0.004","0.017","-0.018"
"774.8100000000001","304617.0","-0.023","-1.02","-0.033","-10.026765","-1.8907614000000001","6.1306506","0.7208","-0.6834","-0.0776","-0.0849","86.92345818","-0.23491278000000002","13.206681900000001","-0.005","0.015","-0.016"
"774.815","304618.0","-0.021","-1.016","-0.035","-10.4851314","-0.859437","6.4744254","0.7211000000000001","-0.6831","-0.07730000000000001","-0.0851","86.87189196","-0.26929026","13.206681900000001","-0.007","0.01","-0.015"
"774.82","304619.0","-0.025","-1.013","-0.035","-10.599723","0.2291832","6.9327917999999995","0.7214","-0.6828000000000001","-0.0771","-0.0853","86.81459616","-0.30366773999999996","13.206681900000001","-0.004","0.008","-0.016"
"774.825","304620.0","-0.021","-1.007","-0.046","-10.1413566","1.0313244","7.2765666","0.7216","-0.6825","-0.0769","-0.0856","86.76302994","-0.33804522","13.218141059999999","-0.009","0.001","-0.006"
"774.83","304621.0","-0.023","-1.004","-0.047","-9.110032200000001","1.0313244","8.021412000000002","0.7219","-0.6822","-0.0766","-0.0859","86.71719329999999","-0.37815228","13.223870639999998","-0.007","0.0","-0.005"
"774.835","304622.0","-0.029","-1.004","-0.051","-8.6516658","1.3750992","8.479778399999999","0.7221","-0.682","-0.0764","-0.0863","86.67708624000001","-0.41825934","13.22960022","-0.001","0.0","-0.003"
"774.84","304623.0","-0.032","-1.003","-0.056","-7.9641162","1.8334656","8.5370742","0.7222999999999999","-0.6818","-0.0761","-0.0866","86.63124959999999","-0.45836639999999995","13.24105938","0.0","-0.001","0.001"
"774.845","304624.0","-0.033","-1.002","-0.06","-6.875496","1.5469865999999999","8.4224826","0.7224999999999999","-0.6816","-0.0759","-0.0869","86.59687212","-0.5042030399999999","13.25251854","0.0","-0.002","0.004"
"774.85","304625.0","-0.035","-1.001","-0.06","-5.786875800000001","1.0313244","8.3651868","0.7227","-0.6814","-0.0757","-0.0873","86.56822422","-0.5443101","13.25824812","0.001","-0.003","0.004"
"774.855","304626.0","-0.034","-1.002","-0.056","-4.583664","1.2032118","8.5370742","0.7228","-0.6813","-0.0754","-0.0876","86.5453059","-0.5844171599999999","13.26970728","0.0","-0.002","0.0"
"774.86","304627.0","-0.039","-1.007","-0.049","-4.9847345999999995","1.2032118","9.110032200000001","0.7229","-0.6811","-0.0752","-0.0879","86.51665799999999","-0.6302538","13.275436860000003","0.004","0.002","-0.007"
"774.865","304628.0","-0.047","-1.002","-0.051","-6.1879463999999995","1.9480572","9.3965112","0.7230000000000001","-0.6809000000000001","-0.0749","-0.0883","86.48801010000001","-0.67609044","13.28689602","0.011","-0.002","-0.005"
"774.87","304629.0","-0.056","-1.0","-0.053","-7.0473834","2.86479","9.3965112","0.7232000000000001","-0.6807000000000001","-0.0747","-0.0887","86.44790304","-0.72192708","13.30408476","0.019","-0.004","-0.004"
"774.875","304630.0","-0.057","-0.997","-0.061","-7.6203414","2.9793816","9.167328","0.7234","-0.6805","-0.0745","-0.0891","86.40779597999999","-0.76776372","13.3212735","0.019","-0.007","0.003"
"774.88","304631.0","-0.063","-0.995","-0.067","-8.3651868","2.291832","8.6516658","0.7236","-0.6803","-0.0743","-0.08940000000000001","86.36768892","-0.8078707799999998","13.33273266","0.025","-0.008","0.008"
"774.885","304632.0","-0.066","-0.993","-0.073","-9.167328","1.8334656","7.734933000000001","0.7238","-0.6799999999999999","-0.0741","-0.0898","86.32185228","-0.8479778399999999","13.34419182","0.026","-0.011","0.013"
"774.89","304633.0","-0.066","-0.99","-0.079","-9.3965112","0.286479","6.5317212","0.7241","-0.6797","-0.0739","-0.09","86.27028606","-0.87662574","13.3499214","0.026","-0.013","0.018"
"774.895","304634.0","-0.066","-0.988","-0.08","-9.5683986","-1.3750992","5.3858052","0.7243999999999999","-0.6794","-0.0736","-0.0902","86.22444942","-0.9052736400000001","13.34419182","0.026","-0.016","0.018"
"774.9","304635.0","-0.069","-0.989","-0.08","-9.969469199999999","-2.3491278","4.583664","0.7247","-0.6791","-0.0733","-0.0903","86.16715362","-0.9396511200000001","13.33273266","0.028","-0.014","0.017"
"774.905","304636.0","-0.074","-0.983","-0.08","-10.313244","-2.8074942000000003","4.1252976","0.725","-0.6788000000000001","-0.0731","-0.09040000000000001","86.1155874","-0.95683986","13.3212735","0.032","-0.02","0.016"
"774.91","304637.0","-0.076","-0.979","-0.081","-10.599723","-2.8074942000000003","3.9534102000000004","0.7253000000000001","-0.6785","-0.0728","-0.0905","86.05829159999999","-0.9797581800000001","13.30408476","0.034","-0.024","0.016"
"774.915","304638.0","-0.076","-0.978","-0.088","-10.7716104","-1.6615782000000001","3.8961144","0.7256","-0.6780999999999999","-0.0726","-0.0906","86.00672538","-0.9969469199999998","13.298355180000001","0.034","-0.025","0.022"
"774.9200000000001","304639.0","-0.074","-0.979","-0.094","-10.313244","-0.0572958","4.010706000000001","0.7259","-0.6778","-0.07239999999999999","-0.0907","85.95515916000001","-1.0198652400000001","13.298355180000001","0.031","-0.025","0.028"
"774.9250000000001","304640.0","-0.073","-0.975","-0.099","-8.9954406","0.7448454","4.2398891999999995","0.7262","-0.6775","-0.0723","-0.09090000000000001","85.90932252","-1.03705398","13.30408476","0.03","-0.028","0.032"
"774.9300000000001","304641.0","-0.077","-0.977","-0.099","-7.2192708","1.2032118","4.6409598","0.7264","-0.6773","-0.0722","-0.0911","85.86921545999999","-1.0599722999999999","13.309814339999999","0.034","-0.026","0.031"
"774.9350000000001","304642.0","-0.083","-0.976","-0.099","-6.1306506","2.9220857999999996","5.0420304","0.7264999999999999","-0.6771","-0.0721","-0.09140000000000001","85.84056756","-1.0828906200000001","13.32700308","0.039","-0.027","0.03"
"774.94","304643.0","-0.078","-0.97","-0.118","-6.0733548","4.1252976","4.583664","0.7267","-0.6769000000000001","-0.0721","-0.0917","85.80619008000001","-1.10580894","13.3499214","0.034","-0.033","0.049"
"774.945","304644.0","-0.072","-0.969","-0.132","-5.6722842","3.8961144","4.5263682","0.7268","-0.6767000000000001","-0.072","-0.09190000000000001","85.77754218","-1.12872726","13.372839720000002","0.027","-0.034","0.062"
"774.95","304645.0","-0.079","-0.969","-0.116","-3.9534102000000004","4.4690724","5.2712136","0.727","-0.6765","-0.07189999999999999","-0.09240000000000001","85.73743512","-1.1688343199999998","13.39575804","0.034","-0.033","0.046"
"774.955","304646.0","-0.087","-0.971","-0.105","-2.6929026","4.2398891999999995","5.5576926","0.727","-0.6764","-0.0718","-0.0927","85.72024638","-1.19748222","13.418676360000001","0.041","-0.032","0.035"
"774.96","304647.0","-0.091","-0.966","-0.114","-1.8334656","5.3858052","5.5003968","0.7271","-0.6763","-0.0718","-0.093","85.70878722","-1.22040054","13.447324259999998","0.045","-0.036","0.044"
"774.965","304648.0","-0.095","-0.968","-0.114","-1.0886202","6.875496","5.3285094","0.7271","-0.6763","-0.07189999999999999","-0.09340000000000001","85.70305764","-1.24904844","13.48170174","0.048","-0.035","0.043"
"774.97","304649.0","-0.088","-0.968","-0.112","-1.6615782000000001","7.8495246000000005","4.583664","0.7271","-0.6761999999999999","-0.072","-0.0938","85.69732806","-1.26623718","13.521808799999999","0.041","-0.035","0.04"
"774.975","304650.0","-0.078","-0.971","-0.108","-1.7761698","7.6776372","4.068001799999999","0.7271","-0.6761","-0.0721","-0.09409999999999999","85.6858689","-1.28342592","13.56191586","0.031","-0.032","0.037"
"774.98","304651.0","-0.079","-0.972","-0.109","-0.6302538","6.1306506","3.3231564000000002","0.7271","-0.6761","-0.0722","-0.0944","85.68013932","-1.3006146600000001","13.596293340000003","0.031","-0.03","0.037"
"774.985","304652.0","-0.079","-0.973","-0.104","-0.0572958","3.724227","2.1772404","0.727","-0.6761","-0.0722","-0.09459999999999999","85.68013932","-1.30634424","13.61348208","0.032","-0.03","0.033"
"774.99","304653.0","-0.072","-0.979","-0.101","0.0572958","1.2605076","1.0313244","0.727","-0.6761","-0.0722","-0.09469999999999999","85.68013932","-1.31207382","13.61921166","0.025","-0.023","0.029"
"774.995","304654.0","-0.073","-0.982","-0.102","-0.0572958","-1.0886202","0.1718874","0.727","-0.6761","-0.0722","-0.09459999999999999","85.68013932","-1.31207382","13.61348208","0.025","-0.021","0.03"
"775.0","304655.0","-0.077","-0.981","-0.104","0.2291832","-2.4637194","-0.4583664","0.7274","-0.6757","-0.0718","-0.0949","85.62284352","-1.36364004","13.6077525","0.029","-0.022","0.032"
"775.005","304656.0","-0.078","-0.982","-0.108","0.4010706","-3.2085648","-1.2032118","0.7274","-0.6758","-0.0717","-0.0948","85.62284352","-1.36364004","13.59056376","0.029","-0.021","0.036"
"775.01","304657.0","-0.074","-0.98","-0.107","0.6875496","-3.2085648","-1.6042824","0.7274","-0.6758","-0.0716","-0.09459999999999999","85.62857310000001","-1.35218088","13.57337502","0.025","-0.023","0.035"
"775.015","304658.0","-0.073","-0.98","-0.109","1.2032118","-2.7501984","-1.3750992","0.7273","-0.6758","-0.0716","-0.0945","85.63430267999999","-1.3464512999999998","13.55618628","0.024","-0.023","0.036"
"775.02","304659.0","-0.076","-0.98","-0.111","1.6042824","-1.4896908","-0.9740286","0.7273","-0.6759000000000001","-0.0716","-0.0944","85.64003226","-1.3464512999999998","13.550456700000002","0.027","-0.023","0.039"
"775.025","304660.0","-0.072","-0.982","-0.114","1.6615782000000001","0.859437","-0.859437","0.7272000000000001","-0.6759000000000001","-0.0717","-0.0944","85.65149142","-1.3407217200000001","13.55618628","0.023","-0.02","0.041"
"775.03","304661.0","-0.064","-0.983","-0.11","1.4896908","2.5210152","-0.7448454","0.7272000000000001","-0.6759999999999999","-0.0718","-0.0945","85.65722099999999","-1.3349921400000002","13.567645439999998","0.016","-0.019","0.038"
"775.035","304662.0","-0.058","-0.986","-0.108","1.432395","3.2085648","-0.4583664","0.7271","-0.6759999999999999","-0.07189999999999999","-0.0945","85.66295058","-1.32926256","13.584834179999998","0.01","-0.017","0.036"
"775.04","304663.0","-0.054","-0.988","-0.105","1.6042824","4.1825934","-0.3437748","0.7271","-0.6759999999999999","-0.072","-0.09459999999999999","85.67440974","-1.32926256","13.602022920000001","0.006","-0.015","0.033"
"775.0450000000001","304664.0","-0.051","-0.989","-0.104","2.1772404","4.3544808","-0.286479","0.727","-0.6761","-0.0722","-0.0948","85.68013932","-1.32353298","13.624941240000002","0.003","-0.014","0.032"
"775.0500000000001","304665.0","-0.05","-0.989","-0.101","3.2085648","3.8388186","0.0","0.727","-0.6759999999999999","-0.0723","-0.0949","85.67440974","-1.32353298","13.64785956","0.002","-0.014","0.029"
"775.0550000000001","304666.0","-0.048","-0.993","-0.094","4.1825934","4.010706000000001","0.3437748","0.7269","-0.6761999999999999","-0.07239999999999999","-0.095","85.69732806","-1.32353298","13.665048299999999","0.0","-0.01","0.022"
"775.0600000000001","304667.0","-0.051","-0.998","-0.083","4.4117766","4.9847345999999995","0.8021412","0.7268","-0.6763","-0.0726","-0.09519999999999999","85.7145168","-1.32926256","13.6936962","0.002","-0.005","0.012"
"775.065","304668.0","-0.054","-1.0","-0.075","4.5263682","5.6149884000000005","1.0886202","0.7266","-0.6764","-0.0728","-0.0954","85.73743512","-1.32926256","13.7223441","0.006","-0.003","0.005"
"775.07","304669.0","-0.053","-1.0","-0.073","4.1825934","5.9014674","1.0886202","0.7264","-0.6765","-0.07289999999999999","-0.09559999999999999","85.76035343999999","-1.3349921400000002","13.750992","0.005","-0.003","0.003"
"775.075","304670.0","-0.057","-0.998","-0.076","3.724227","5.443101","0.9740286","0.7263","-0.6766","-0.0731","-0.0957","85.77754218","-1.3407217200000001","13.779639899999998","0.009","-0.005","0.006"
"775.08","304671.0","-0.062","-0.995","-0.083","3.2085648","4.8701430000000006","0.572958","0.7262","-0.6767000000000001","-0.0732","-0.0959","85.79473092","-1.3407217200000001","13.80255822","0.013","-0.008","0.013"
"775.085","304672.0","-0.063","-0.989","-0.088","3.8961144","3.8961144","0.1718874","0.7261","-0.6768","-0.07339999999999999","-0.096","85.81191966","-1.3407217200000001","13.81974696","0.015","-0.014","0.019"
"775.09","304673.0","-0.069","-0.986","-0.09","4.9274388","2.9793816","-0.1145916","0.7259","-0.6769999999999999","-0.0735","-0.09609999999999999","85.83483798","-1.3407217200000001","13.836935700000002","0.02","-0.017","0.021"
"775.095","304674.0","-0.068","-0.991","-0.093","4.8128472","2.9793816","-0.7448454","0.7258","-0.6771","-0.0736","-0.09609999999999999","85.86348588000001","-1.3349921400000002","13.854124440000001","0.02","-0.012","0.024"
"775.1","304675.0","-0.061","-0.99","-0.089","4.8701430000000006","3.5523396","-1.3750992","0.7257","-0.6772","-0.0737","-0.0962","85.87494504","-1.3349921400000002","13.871313179999998","0.013","-0.013","0.02"
"775.105","304676.0","-0.054","-0.992","-0.078","5.443101","4.010706000000001","-1.718874","0.7255","-0.6773","-0.0739","-0.0963","85.89786336","-1.32353298","13.88850192","0.006","-0.011","0.01"
"775.11","304677.0","-0.049","-0.998","-0.069","5.3285094","4.010706000000001","-1.8907614000000001","0.7253000000000001","-0.6775","-0.0741","-0.0963","85.92651126","-1.31207382","13.911420239999998","0.001","-0.006","0.001"
"775.115","304678.0","-0.04","-0.996","-0.072","4.6409598","3.437748","-1.8334656","0.7252","-0.6776","-0.0743","-0.0964","85.94942957999999","-1.30634424","13.922879400000003","-0.006","-0.008","0.005"
"775.12","304679.0","-0.04","-0.99","-0.076","6.016058999999999","1.8334656","-1.6615782000000001","0.725","-0.6778","-0.0745","-0.0964","85.97807748","-1.29488508","13.93433856","-0.007","-0.013","0.009"
"775.125","304680.0","-0.046","-1.0","-0.069","7.161975","-0.0572958","-1.2605076","0.7248","-0.678","-0.0745","-0.0963","86.01818454000001","-1.2891555000000001","13.93433856","0.0","-0.003","0.003"
"775.13","304681.0","-0.053","-1.001","-0.073","6.0733548","0.1718874","-1.3178034","0.7246","-0.6782","-0.0746","-0.0962","86.04683244","-1.28342592","13.93433856","0.005","-0.002","0.008"
"775.135","304682.0","-0.058","-1.0","-0.08","6.8182002","0.4010706","-1.2032118","0.7243999999999999","-0.6784","-0.0747","-0.0962","86.08120991999999","-1.2776963399999999","13.93433856","0.011","-0.004","0.015"
"775.14","304683.0","-0.065","-0.994","-0.072","7.448454","0.5156622","-1.2605076","0.7242","-0.6786","-0.0748","-0.09609999999999999","86.12131698","-1.27196676","13.94006814","0.018","-0.009","0.008"
"775.145","304684.0","-0.064","-0.995","-0.07","7.3338624","0.6302538","-1.3178034","0.724","-0.6789","-0.0748","-0.09609999999999999","86.15569446","-1.26623718","13.94006814","0.017","-0.008","0.006"
"775.15","304685.0","-0.069","-0.991","-0.073","7.1046792","0.6875496","-1.2605076","0.7238","-0.679","-0.0748","-0.0962","86.18434235999999","-1.2776963399999999","13.945797720000002","0.022","-0.012","0.01"
"775.155","304686.0","-0.081","-0.983","-0.073","6.9327917999999995","0.859437","-1.2605076","0.7236","-0.6792","-0.0749","-0.0962","86.21871984","-1.27196676","13.9515273","0.034","-0.02","0.011"
"775.16","304687.0","-0.092","-0.98","-0.072","6.1879463999999995","1.3178034","-1.432395","0.7234","-0.6794","-0.075","-0.09609999999999999","86.25309732000001","-1.2605076","13.95725688","0.045","-0.023","0.01"
"775.165","304688.0","-0.096","-0.976","-0.075","5.72958","2.1199445999999997","-1.7761698","0.7232999999999999","-0.6796","-0.0752","-0.09609999999999999","86.28174521999999","-1.25477802","13.96871604","0.049","-0.027","0.014"
"775.1700000000001","304689.0","-0.098","-0.974","-0.079","5.6722842","3.3804521999999997","-1.9480572","0.7231","-0.6798","-0.0753","-0.09609999999999999","86.31039312","-1.24331886","13.985904779999998","0.052","-0.029","0.019"
"775.1750000000001","304690.0","-0.108","-0.969","-0.084","5.443101","5.0420304","-2.2345362","0.7229","-0.6799000000000001","-0.0756","-0.0962","86.33331144","-1.2318597","14.008823099999997","0.062","-0.034","0.024"
"775.1800000000001","304691.0","-0.107","-0.964","-0.087","5.5576926","6.4744254","-3.2658606","0.7227","-0.6801","-0.0759","-0.0963","86.36195934","-1.2146709599999999","14.037471000000002","0.061","-0.039","0.027"
"775.1850000000001","304692.0","-0.095","-0.971","-0.086","6.703608600000001","6.9327917999999995","-4.583664","0.7224999999999999","-0.6801999999999999","-0.0763","-0.0963","86.39633682","-1.18602306","14.07184848","0.049","-0.032","0.027"
"775.19","304693.0","-0.076","-0.983","-0.079","7.3338624","6.3598338","-5.9587632","0.7222999999999999","-0.6804","-0.0767","-0.0963","86.4307143","-1.1573751600000002","14.10622596","0.031","-0.021","0.02"
"775.195","304694.0","-0.067","-0.988","-0.074","7.5057498","4.8701430000000006","-7.1046792","0.7221","-0.6806","-0.0771","-0.0962","86.47082136","-1.12299768","14.12914428","0.022","-0.016","0.016"
"775.2","304695.0","-0.056","-0.988","-0.063","7.906820400000001","3.437748","-7.906820400000001","0.7219","-0.6808","-0.0775","-0.09609999999999999","86.51092842","-1.0828906200000001","14.140603440000001","0.013","-0.016","0.006"
"775.205","304696.0","-0.048","-0.993","-0.053","8.880849","1.9480572","-8.193299399999999","0.7216","-0.6811","-0.07780000000000001","-0.0958","86.55103548","-1.04278356","14.152062600000002","0.005","-0.01","-0.002"
"775.21","304697.0","-0.043","-1.005","-0.046","8.7089616","0.5156622","-8.021412000000002","0.7214","-0.6813","-0.0781","-0.09559999999999999","86.59687212","-1.0026765","14.152062600000002","0.001","0.0","-0.008"
"775.215","304698.0","-0.046","-1.008","-0.051","7.7922288","0.0572958","-7.563045600000001","0.7212","-0.6815","-0.0784","-0.0953","86.63697918","-0.9682990200000001","14.152062600000002","0.004","0.003","-0.004"
"775.22","304699.0","-0.047","-1.013","-0.05","7.2192708","0.9167328","-7.2765666","0.721","-0.6817","-0.0786","-0.09509999999999999","86.67135666","-0.92819196","14.152062600000002","0.006","0.008","-0.004"
"775.225","304700.0","-0.043","-1.016","-0.049","7.2192708","2.1772404","-7.1046792","0.7208","-0.6819","-0.0789","-0.0949","86.71146372000001","-0.89381448","14.16352176","0.002","0.011","-0.004"
"775.23","304701.0","-0.039","-1.018","-0.048","7.563045600000001","3.2658606","-6.589017","0.7206","-0.6820999999999999","-0.07930000000000001","-0.0948","86.75157078","-0.859437","14.174980920000001","0.0","0.012","-0.005"
"775.235","304702.0","-0.033","-1.014","-0.051","8.021412000000002","3.7815228000000003","-6.1879463999999995","0.7203999999999999","-0.6824","-0.0796","-0.09469999999999999","86.79167784","-0.8307891","14.19216966","-0.005","0.009","0.0"
"775.24","304703.0","-0.036","-1.01","-0.051","8.9381448","3.151269","-5.786875800000001","0.7201","-0.6826","-0.0799","-0.09459999999999999","86.83751448000001","-0.8021412000000001","14.2093584","-0.002","0.005","0.0"
"775.245","304704.0","-0.042","-1.004","-0.053","8.7089616","2.9220857999999996","-5.5576926","0.7199","-0.6829","-0.08020000000000001","-0.0945","86.87762153999999","-0.7734933","14.22081756","0.004","-0.001","0.002"
"775.25","304705.0","-0.04","-0.998","-0.057","8.7089616","2.578311","-5.443101","0.7196","-0.6831","-0.0805","-0.0944","86.9177286","-0.7448454","14.232276719999998","0.002","-0.006","0.007"
"775.255","304706.0","-0.042","-0.998","-0.057","9.167328","1.8334656","-4.9274388","0.7194","-0.6834","-0.08070000000000001","-0.09419999999999999","86.96356524000001","-0.72192708","14.24373588","0.005","-0.007","0.007"
"775.26","304707.0","-0.068","-0.986","-0.059","9.110032200000001","2.578311","-4.068001799999999","0.7191","-0.6836","-0.081","-0.09419999999999999","87.01513145999999","-0.69900876","14.25519504","0.031","-0.019","0.011"
"775.265","304708.0","-0.073","-0.981","-0.063","8.9381448","3.724227","-3.9534102000000004","0.7188","-0.6839000000000001","-0.08120000000000001","-0.09409999999999999","87.05523852","-0.68182002","14.272383780000002","0.037","-0.023","0.015"
"775.27","304709.0","-0.079","-0.973","-0.065","8.7089616","5.0420304","-4.1252976","0.7186","-0.6841","-0.08159999999999999","-0.09409999999999999","87.10107516000001","-0.6589017","14.2953021","0.043","-0.031","0.018"
"775.275","304710.0","-0.083","-0.968","-0.069","8.9954406","5.9587632","-4.5263682","0.7182999999999999","-0.6844","-0.0819","-0.09409999999999999","87.14691180000001","-0.63598338","14.329679579999999","0.047","-0.036","0.023"
"775.28","304711.0","-0.083","-0.968","-0.076","9.740286000000001","6.016058999999999","-5.156622","0.718","-0.6846","-0.0823","-0.09409999999999999","87.19847802","-0.6073354799999999","14.35832748","0.047","-0.036","0.031"
"775.285","304712.0","-0.092","-0.966","-0.08","10.1986524","5.786875800000001","-5.9587632","0.7177","-0.6849000000000001","-0.0827","-0.09409999999999999","87.25004424","-0.5786875800000001","14.38697538","0.057","-0.038","0.035"
"775.29","304713.0","-0.091","-0.96","-0.08","10.1986524","7.0473834","-7.161975","0.7174","-0.6852","-0.0832","-0.094","87.30161045999999","-0.5443101","14.421352859999999","0.056","-0.044","0.037"
"775.2950000000001","304714.0","-0.079","-0.959","-0.076","11.573751600000001","7.2765666","-8.4224826","0.717","-0.6855","-0.0837","-0.0939","87.35890626","-0.4984734599999999","14.455730339999999","0.045","-0.046","0.033"
"775.3000000000001","304715.0","-0.063","-0.971","-0.067","12.9488508","6.5317212","-9.3965112","0.7167","-0.6858","-0.0842","-0.0939","87.41620206","-0.45836639999999995","14.484378240000002","0.03","-0.034","0.025"
"775.3050000000001","304716.0","-0.057","-0.977","-0.061","13.0634424","5.443101","-10.0840608","0.7163","-0.6862","-0.0847","-0.0937","87.48495702","-0.40680017999999996","14.51302614","0.025","-0.028","0.021"
"775.3100000000001","304717.0","-0.054","-0.98","-0.059","13.865583599999999","4.2398891999999995","-10.5424272","0.7159","-0.6865","-0.0852","-0.09340000000000001","87.55371198","-0.35523395999999996","14.530214879999999","0.023","-0.025","0.019"
"775.315","304718.0","-0.046","-0.982","-0.053","14.4385416","3.5523396","-11.0580894","0.7155","-0.6869","-0.0857","-0.0931","87.62819652","-0.29793816","14.54740362","0.016","-0.023","0.015"
"775.32","304719.0","-0.042","-0.989","-0.045","14.7250206","3.3804521999999997","-10.9434978","0.7151","-0.6874","-0.0862","-0.09290000000000001","87.70268106","-0.24637194","14.564592359999997","0.013","-0.016","0.009"
"775.325","304720.0","-0.039","-0.993","-0.04","14.2666542","4.1825934","-10.599723","0.7147","-0.6878","-0.0867","-0.0926","87.7771656","-0.19480572000000002","14.5817811","0.011","-0.012","0.005"
"775.33","304721.0","-0.035","-0.996","-0.044","14.3812458","4.8701430000000006","-10.255948199999999","0.7142000000000001","-0.6881999999999999","-0.0873","-0.09240000000000001","87.84592056","-0.14323950000000002","14.60469942","0.008","-0.009","0.01"
"775.335","304722.0","-0.038","-0.996","-0.043","15.0114996","4.9847345999999995","-9.6256944","0.7138","-0.6886","-0.0878","-0.0922","87.92613467999999","-0.09167328","14.62761774","0.012","-0.009","0.011"
"775.34","304723.0","-0.042","-0.999","-0.041","14.782316400000001","5.3285094","-9.3392154","0.7134","-0.689","-0.0883","-0.092","88.00061922","-0.04583664","14.656265639999997","0.016","-0.007","0.009"
"775.345","304724.0","-0.046","-0.995","-0.042","14.2666542","5.72958","-9.2246238","0.7129","-0.6894","-0.0888","-0.09190000000000001","88.06937418","0.0","14.684913540000002","0.021","-0.01","0.012"
"775.35","304725.0","-0.047","-0.991","-0.045","14.3812458","6.703608600000001","-8.9954406","0.7125","-0.6897","-0.0893","-0.0918","88.13812913999999","0.03437748","14.71929102","0.023","-0.014","0.016"
"775.355","304726.0","-0.05","-0.982","-0.051","15.813640800000002","7.0473834","-8.8235532","0.7121000000000001","-0.6902","-0.0898","-0.0917","88.21834326000001","0.07448454","14.7536685","0.027","-0.023","0.024"
"775.36","304727.0","-0.048","-0.986","-0.049","16.5011904","6.703608600000001","-8.3651868","0.7116","-0.6906","-0.0903","-0.0915","88.30428696","0.12032118","14.7823164","0.026","-0.02","0.023"
"775.365","304728.0","-0.057","-0.978","-0.053","16.5011904","7.0473834","-7.9641162","0.7111","-0.6910999999999999","-0.09090000000000001","-0.0915","88.39023066","0.16042824","14.822423460000001","0.035","-0.027","0.029"
"775.37","304729.0","-0.073","-0.968","-0.06","17.1314442","8.2505952","-7.7922288","0.7105","-0.6916","-0.09140000000000001","-0.09140000000000001","88.47617436","0.19480572000000002","14.862530519999998","0.052","-0.038","0.037"
"775.375","304730.0","-0.082","-0.965","-0.056","18.1054728","9.6256944","-7.9641162","0.71","-0.6921","-0.092","-0.09140000000000001","88.56784764","0.23491278000000002","14.908367160000001","0.062","-0.04","0.035"
"775.38","304731.0","-0.074","-0.958","-0.056","18.7930224","11.0580894","-8.59437","0.7094","-0.6926","-0.0927","-0.09140000000000001","88.65952092","0.28074942","14.96566296","0.054","-0.048","0.036"
"775.385","304732.0","-0.068","-0.961","-0.058","20.511896399999998","11.0007936","-8.8235532","0.7087","-0.6932","-0.09340000000000001","-0.09140000000000001","88.76838294000001","0.32658606","15.017229180000001","0.049","-0.044","0.04"
"775.39","304733.0","-0.072","-0.96","-0.047","20.8556712","11.1153852","-9.2819196","0.7081000000000001","-0.6937","-0.09409999999999999","-0.09140000000000001","88.87151537999999","0.3724227","15.074524979999998","0.055","-0.045","0.031"
"775.395","304734.0","-0.072","-0.956","-0.05","20.626488","11.45916","-10.255948199999999","0.7074","-0.6942999999999999","-0.0948","-0.0913","88.97464782","0.41825934","15.131820780000002","0.055","-0.049","0.035"
"775.4","304735.0","-0.073","-0.957","-0.046","21.5432208","10.313244","-11.2872726","0.7068","-0.6948000000000001","-0.0955","-0.0913","89.08350984","0.46982556000000003","15.183387","0.057","-0.048","0.033"
"775.405","304736.0","-0.068","-0.963","-0.039","21.2567418","9.8548776","-12.6623718","0.7062","-0.6954","-0.0963","-0.0911","89.19237186000001","0.52712136","15.23495322","0.052","-0.043","0.028"
"775.41","304737.0","-0.064","-0.967","-0.031","20.8556712","8.9381448","-13.808287799999999","0.7055","-0.696","-0.09709999999999999","-0.09090000000000001","89.2955043","0.59587632","15.27506028","0.051","-0.038","0.022"
"775.415","304738.0","-0.062","-0.971","-0.025","20.7410796","8.479778399999999","-14.9542038","0.7049000000000001","-0.6965","-0.0979","-0.0906","89.40436632","0.6703608600000001","15.32089692","0.05","-0.034","0.018"
"775.4200000000001","304739.0","-0.055","-0.971","-0.022","21.0848544","8.307891","-15.5844576","0.7043","-0.6971","-0.0987","-0.0903","89.50749876","0.75057498","15.361003980000001","0.043","-0.034","0.017"
"775.4250000000001","304740.0","-0.05","-0.974","-0.02","21.2567418","8.5370742","-15.699049200000001","0.7037","-0.6976","-0.0995","-0.09","89.61636078000001","0.8250595199999999","15.40684062","0.04","-0.032","0.016"
"775.4300000000001","304741.0","-0.051","-0.978","-0.011","21.0275586","10.026765","-15.6417534","0.7030000000000001","-0.6982","-0.1004","-0.0898","89.72522280000001","0.89954406","15.45840684","0.043","-0.027","0.009"
"775.4350000000001","304742.0","-0.035","-0.989","-0.007","20.5691922","11.6310474","-15.985528200000001","0.7024","-0.6987","-0.10129999999999999","-0.0895","89.82835524000001","0.9797581800000001","15.51570264","0.028","-0.017","0.007"
"775.44","304743.0","-0.024","-0.994","-0.005","20.912967","12.375892799999999","-15.813640800000002","0.7017","-0.6993","-0.1022","-0.08940000000000001","89.93721726","1.0599722999999999","15.57872802","0.018","-0.012","0.007"
"775.445","304744.0","-0.019","-1.001","0.006","21.2567418","13.6364004","-15.5844576","0.7011000000000001","-0.6998","-0.1032","-0.0892","90.04607927999999","1.13445684","15.647482979999998","0.015","-0.004","-0.002"
"775.45","304745.0","-0.002","-1.007","0.013","21.6578124","14.782316400000001","-15.699049200000001","0.7003999999999999","-0.7003","-0.1042","-0.0891","90.16067088","1.20894138","15.721967520000002","0.0","0.001","-0.008"
"775.455","304746.0","0.013","-1.009","0.019","23.2620948","14.037471","-15.412570200000001","0.6997","-0.7009000000000001","-0.1052","-0.089","90.28099205999999","1.28342592","15.796452060000002","-0.015","0.003","-0.011"
"775.46","304747.0","0.014","-1.02","0.033","23.777756999999998","12.8342592","-14.5531332","0.6989","-0.7016","-0.1061","-0.0888","90.40131324000001","1.3579104599999998","15.859477439999997","-0.015","0.014","-0.023"
"775.465","304748.0","0.016","-1.027","0.04","22.459953600000002","13.292625600000001","-14.2666542","0.6982","-0.7021","-0.1071","-0.0887","90.51590483999999","1.42666542","15.928232399999999","-0.015","0.021","-0.028"
"775.47","304749.0","0.018","-1.025","0.038","21.9442914","12.4331886","-14.0947668","0.6975","-0.7027","-0.10800000000000001","-0.0886","90.63049644","1.49542038","15.991257780000002","-0.016","0.018","-0.024"
"775.475","304750.0","0.019","-1.036","0.047","22.0015872","11.2872726","-13.6936962","0.6968","-0.7033","-0.10880000000000001","-0.0884","90.74508804","1.5584457600000001","16.04855358","-0.015","0.029","-0.031"
"775.48","304751.0","0.031","-1.036","0.055","21.199446","11.8029348","-13.521808799999999","0.6961999999999999","-0.7038","-0.10969999999999999","-0.0883","90.85395006","1.6272007199999998","16.11157896","-0.027","0.03","-0.037"
"775.485","304752.0","0.024","-1.022","0.036","22.91832","13.6364004","-12.7769634","0.6954","-0.7043999999999999","-0.1105","-0.0882","90.96854166","1.6844965200000002","16.18033392","-0.019","0.016","-0.016"
"775.49","304753.0","0.014","-1.025","0.046","22.8037284","12.605076","-12.605076","0.6947","-0.705","-0.11140000000000001","-0.0881","91.08886284","1.7475219","16.24908888","-0.008","0.019","-0.024"
"775.495","304754.0","0.026","-1.024","0.043","21.1421502","13.750992","-13.178034","0.6940000000000001","-0.7055","-0.1123","-0.0881","91.19772486","1.8105472800000002","16.317843840000002","-0.018","0.018","-0.02"
"775.5","304755.0","0.048","-1.036","0.06","22.345362","13.521808799999999","-12.891555","0.6933","-0.7061","-0.1132","-0.088","91.31804604","1.87357266","16.386598799999998","-0.039","0.03","-0.034"
"775.505","304756.0","0.05","-1.038","0.073","21.3140376","13.006146600000001","-12.605076","0.6926","-0.7067","-0.11410000000000001","-0.0879","91.42690806","1.9365980400000002","16.45535376","-0.04","0.033","-0.045"
"775.51","304757.0","0.054","-1.042","0.074","19.767051","12.5477802","-12.891555","0.692","-0.7072","-0.1149","-0.0878","91.5300405","1.9938938399999997","16.51837914","-0.043","0.037","-0.044"
"775.515","304758.0","0.067","-1.043","0.077","17.8762896","11.229976800000001","-13.2353298","0.6914","-0.7076","-0.1157","-0.0877","91.62171378","2.05691922","16.58140452","-0.055","0.037","-0.046"
"775.52","304759.0","0.073","-1.041","0.076","17.4179232","9.167328","-13.178034","0.6909","-0.708","-0.1165","-0.0875","91.71338706000002","2.1199445999999997","16.62724116","-0.06","0.035","-0.043"
"775.525","304760.0","0.076","-1.051","0.085","17.3606274","7.906820400000001","-12.891555","0.6902999999999999","-0.7085","-0.1172","-0.0873","91.80506034","2.18296998","16.6730778","-0.061","0.046","-0.051"
"775.53","304761.0","0.09","-1.056","0.088","15.985528200000001","7.6203414","-12.891555","0.6898","-0.7089000000000001","-0.1179","-0.0871","91.88527445999999","2.24599536","16.71318486","-0.074","0.051","-0.052"
"775.535","304762.0","0.099","-1.06","0.088","16.329303","6.5317212","-12.032117999999999","0.6893","-0.7093","-0.11850000000000001","-0.0868","91.97121816","2.30329116","16.747562339999998","-0.082","0.054","-0.051"
"775.54","304763.0","0.097","-1.062","0.095","16.7303736","5.844171599999999","-11.0580894","0.6888","-0.7097","-0.11910000000000001","-0.0866","92.05716186","2.35485738","16.781939819999998","-0.08","0.057","-0.056"
"775.5450000000001","304764.0","0.095","-1.061","0.1","15.412570200000001","6.4171296","-10.1986524","0.6883","-0.7101","-0.1197","-0.0864","92.13737598","2.4064235999999997","16.8163173","-0.077","0.056","-0.06"
"775.5500000000001","304765.0","0.101","-1.062","0.102","14.152062599999999","6.760904399999999","-9.3392154","0.6878","-0.7105","-0.1203","-0.0862","92.22331968","2.4637194","16.850694779999998","-0.082","0.056","-0.061"
"775.5550000000001","304766.0","0.107","-1.06","0.1","14.4385416","6.5317212","-8.479778399999999","0.6874","-0.7109","-0.12079999999999999","-0.086","92.29780422000002","2.50382646","16.88507226","-0.087","0.055","-0.057"
"775.5600000000001","304767.0","0.108","-1.068","0.106","14.782316400000001","5.443101","-7.5057498","0.6869","-0.7113","-0.1213","-0.0859","92.37228876","2.53820394","16.91372016","-0.087","0.063","-0.062"
"775.565","304768.0","0.105","-1.069","0.108","13.292625600000001","5.6149884000000005","-6.760904399999999","0.6865","-0.7116","-0.1217","-0.0858","92.44104372000001","2.57258142","16.94809764","-0.084","0.064","-0.062"
"775.57","304769.0","0.106","-1.069","0.104","12.2613012","5.5003968","-6.1879463999999995","0.6860999999999999","-0.7119","-0.12210000000000001","-0.0858","92.5040691","2.6012293200000003","16.976745540000003","-0.085","0.064","-0.058"
"775.575","304770.0","0.106","-1.071","0.109","11.2872726","4.8128472","-5.443101","0.6857","-0.7121999999999999","-0.12250000000000001","-0.0857","92.56709448","2.62414764","16.999663860000002","-0.084","0.066","-0.061"
"775.58","304771.0","0.103","-1.073","0.12","9.5111028","5.156622","-4.6409598","0.6854","-0.7125","-0.12279999999999999","-0.0857","92.61293112000001","2.64706596","17.02831176","-0.08","0.069","-0.071"
"775.585","304772.0","0.101","-1.072","0.12","7.563045600000001","5.443101","-3.9534102000000004","0.6852","-0.7127","-0.12310000000000001","-0.0857","92.65303818","2.6642547","17.056959659999997","-0.078","0.067","-0.07"
"775.59","304773.0","0.099","-1.069","0.116","6.2452422","5.5576926","-3.437748","0.6849000000000001","-0.7128","-0.1234","-0.0857","92.68741566","2.6814434400000002","17.085607560000003","-0.076","0.064","-0.066"
"775.595","304774.0","0.101","-1.065","0.112","5.72958","5.2712136","-2.9220857999999996","0.6847000000000001","-0.713","-0.1237","-0.0858","92.71606355999998","2.6929025999999996","17.114255460000003","-0.077","0.06","-0.062"
"775.6","304775.0","0.107","-1.067","0.111","5.9014674","3.8388186","-2.4637194","0.6844","-0.7132","-0.12410000000000002","-0.0856","92.77335936","2.73873924","17.1314442","-0.083","0.062","-0.06"
"775.605","304776.0","0.101","-1.065","0.112","5.3858052","2.7501984","-1.718874","0.6841999999999999","-0.7134","-0.12430000000000001","-0.0856","92.80200726","2.7501984","17.14863294","-0.077","0.061","-0.06"
"775.61","304777.0","0.102","-1.066","0.111","5.2139178","2.4637194","-1.5469865999999999","0.6839999999999999","-0.7135","-0.1244","-0.0856","92.83065516000002","2.75592798","17.1600921","-0.077","0.062","-0.058"
"775.615","304778.0","0.107","-1.066","0.112","5.3858052","0.9167328","-1.3178034","0.6839000000000001","-0.7137","-0.12450000000000001","-0.08549999999999999","92.85930306","2.7616575599999997","17.16582168","-0.082","0.062","-0.059"
"775.62","304779.0","0.111","-1.067","0.115","5.443101","-0.9167328","-0.572958","0.6837","-0.7138","-0.12450000000000001","-0.08549999999999999","92.88222137999999","2.7616575599999997","17.1600921","-0.086","0.062","-0.061"
"775.625","304780.0","0.108","-1.065","0.116","5.9014674","-2.0626488","0.0","0.6835","-0.714","-0.12450000000000001","-0.0854","92.91659886","2.7616575599999997","17.15436252","-0.083","0.061","-0.063"
"775.63","304781.0","0.098","-1.069","0.121","5.6149884000000005","-3.4950438","0.572958","0.6834","-0.7142000000000001","-0.1244","-0.0852","92.93951718","2.7616575599999997","17.13717378","-0.074","0.065","-0.066"
"775.635","304782.0","0.091","-1.068","0.12","3.6669312","-4.2398891999999995","0.9740286","0.6833","-0.7142999999999999","-0.1242","-0.0851","92.9624355","2.75592798","17.114255460000003","-0.066","0.064","-0.065"
"775.64","304783.0","0.088","-1.065","0.119","1.718874","-4.4690724","1.3750992","0.6832","-0.7144","-0.12410000000000002","-0.08499999999999999","92.96816507999999","2.7501984","17.09133714","-0.063","0.061","-0.064"
"775.645","304784.0","0.086","-1.06","0.114","1.0313244","-4.583664","1.8907614000000001","0.6832","-0.7144999999999999","-0.12390000000000001","-0.0849","92.97389466","2.74446882","17.068418819999998","-0.061","0.055","-0.059"
"775.65","304785.0","0.083","-1.063","0.117","1.0313244","-4.6982556","2.6929026","0.683","-0.7147","-0.12390000000000001","-0.0846","93.01400172000001","2.7616575599999997","17.0455005","-0.059","0.059","-0.061"
"775.655","304786.0","0.077","-1.062","0.117","-0.1718874","-4.010706000000001","3.5523396","0.683","-0.7148","-0.1236","-0.0846","93.00827214","2.74446882","17.02258218","-0.052","0.058","-0.061"
"775.66","304787.0","0.07","-1.055","0.105","-1.3750992","-3.2658606","4.2398891999999995","0.6831","-0.7147","-0.1234","-0.0846","93.00254256","2.72728008","17.00539344","-0.046","0.051","-0.049"
"775.665","304788.0","0.066","-1.048","0.104","-2.578311","-2.4637194","4.8701430000000006","0.6832","-0.7147","-0.1232","-0.0847","92.98535382","2.70436176","16.9882047","-0.042","0.044","-0.048"
"775.6700000000001","304789.0","0.061","-1.046","0.099","-3.5523396","-1.4896908","5.6722842","0.6833","-0.7146","-0.12290000000000001","-0.0848","92.96816507999999","2.67571386","16.98247512","-0.037","0.042","-0.044"
"775.6750000000001","304790.0","0.059","-1.046","0.098","-4.1252976","0.0","6.4171296","0.6834","-0.7144999999999999","-0.1227","-0.08499999999999999","92.94524676","2.6413363800000003","16.976745540000003","-0.036","0.042","-0.043"
"775.6800000000001","304791.0","0.06","-1.045","0.095","-4.4690724","1.2605076","6.875496","0.6835","-0.7144","-0.12250000000000001","-0.0853","92.92232844","2.6069589","16.98247512","-0.038","0.041","-0.04"
"775.6850000000001","304792.0","0.061","-1.045","0.085","-4.9274388","1.7761698","7.3338624","0.6836","-0.7142999999999999","-0.1223","-0.0856","92.89941012","2.57258142","16.9882047","-0.039","0.04","-0.031"
"775.69","304793.0","0.064","-1.041","0.082","-5.6722842","1.5469865999999999","7.3911582000000005","0.6837","-0.7142000000000001","-0.12210000000000001","-0.0859","92.87076221999999","2.53820394","16.99393428","-0.043","0.036","-0.028"
"775.695","304794.0","0.068","-1.038","0.075","-6.5317212","1.718874","7.563045600000001","0.6839000000000001","-0.714","-0.12190000000000001","-0.0862","92.83638474","2.49809688","16.999663860000002","-0.048","0.033","-0.022"
"775.7","304795.0","0.074","-1.04","0.074","-6.875496","2.0626488","7.8495246000000005","0.6841","-0.7139","-0.12179999999999999","-0.0864","92.81346642000001","2.48090814","17.01112302","-0.054","0.035","-0.022"
"775.705","304796.0","0.084","-1.039","0.067","-7.2765666","1.0886202","7.8495246000000005","0.6843","-0.7137","-0.1216","-0.0867","92.77335936","2.44080108","17.01112302","-0.065","0.034","-0.015"
"775.71","304797.0","0.097","-1.033","0.056","-6.589017","-0.5156622","8.193299399999999","0.6844","-0.7135","-0.1213","-0.087","92.73898188","2.40069402","17.00539344","-0.078","0.028","-0.005"
"775.715","304798.0","0.102","-1.036","0.043","-4.583664","-3.9534102000000004","8.6516658","0.6846","-0.7134","-0.12090000000000001","-0.0871","92.71606355999998","2.36058696","16.9882047","-0.084","0.031","0.006"
"775.72","304799.0","0.098","-1.036","0.038","-5.2139178","-5.0420304","8.9954406","0.6847000000000001","-0.7133","-0.1204","-0.0873","92.68741566","2.3147503200000004","16.959556799999998","-0.082","0.031","0.011"
"775.725","304800.0","0.104","-1.03","0.021","-5.6722842","-6.0733548","9.2819196","0.6849000000000001","-0.7132","-0.1199","-0.0874","92.65876776","2.26891368","16.92517932","-0.088","0.024","0.027"
"775.73","304801.0","0.11","-1.032","0.019","-5.2139178","-7.161975","10.255948199999999","0.6851","-0.7132","-0.11939999999999999","-0.0875","92.63011986000001","2.22307704","16.88507226","-0.095","0.026","0.029"
"775.735","304802.0","0.106","-1.026","0.013","-4.6982556","-7.3338624","11.573751600000001","0.6852","-0.7131000000000001","-0.11879999999999999","-0.0876","92.60147196","2.1657812400000003","16.844965199999997","-0.092","0.021","0.034"
"775.74","304803.0","0.103","-1.024","0.012","-3.6669312","-6.589017","13.006146600000001","0.6853","-0.7131000000000001","-0.1182","-0.0878","92.58428322","2.10275586","16.81058772","-0.09","0.019","0.035"
"775.745","304804.0","0.102","-1.026","0.013","-2.578311","-5.844171599999999","14.2666542","0.6854","-0.7131000000000001","-0.11750000000000001","-0.0881","92.56709448","2.0340008999999997","16.77621024","-0.09","0.02","0.034"
"775.75","304805.0","0.104","-1.033","0.017","-2.0626488","-5.2139178","15.2979786","0.6855","-0.7131000000000001","-0.11710000000000001","-0.0882","92.54990574","1.98816426","16.747562339999998","-0.094","0.027","0.029"
"775.755","304806.0","0.101","-1.037","0.022","-2.291832","-4.4690724","16.2147114","0.6855","-0.7131000000000001","-0.11639999999999999","-0.0885","92.53271699999999","1.90795014","16.71891444","-0.091","0.031","0.024"
"775.76","304807.0","0.103","-1.045","0.029","-3.0366774","-4.583664","16.615782","0.6856","-0.7131000000000001","-0.1157","-0.0889","92.51552826","1.8277360200000001","16.69026654","-0.095","0.039","0.017"
"775.765","304808.0","0.106","-1.05","0.037","-4.010706000000001","-5.9587632","16.8449652","0.6857","-0.7131000000000001","-0.11499999999999999","-0.0892","92.49833951999999","1.74179232","16.65588906","-0.1","0.044","0.009"
"775.77","304809.0","0.104","-1.054","0.052","-4.9274388","-7.6203414","17.3033316","0.6858","-0.713","-0.1142","-0.0895","92.46969161999999","1.6558486199999998","16.615782","-0.099","0.049","-0.005"
"775.775","304810.0","0.105","-1.062","0.064","-6.0733548","-9.3392154","17.18874","0.686","-0.713","-0.11339999999999999","-0.0898","92.43531413999999","1.5756345","16.56421578","-0.101","0.056","-0.018"
"775.78","304811.0","0.103","-1.064","0.074","-6.8182002","-12.089413799999999","17.18874","0.6862","-0.7129","-0.1125","-0.08990000000000001","92.40093665999999","1.49542038","16.495460819999998","-0.1","0.058","-0.029"
"775.785","304812.0","0.098","-1.074","0.082","-8.7089616","-14.6677248","17.0168526","0.6865","-0.7128","-0.1115","-0.09","92.35510002","1.41520626","16.420976279999998","-0.097","0.068","-0.037"
"775.79","304813.0","0.094","-1.069","0.078","-10.9434978","-16.615782","17.0168526","0.6869","-0.7126","-0.11040000000000001","-0.0901","92.29780422000002","1.32926256","16.33503258","-0.094","0.063","-0.034"
"775.7950000000001","304814.0","0.091","-1.059","0.073","-11.516455800000001","-17.9908812","16.902261","0.6872","-0.7123999999999999","-0.1093","-0.09","92.23477883999999","1.25477802","16.23762972","-0.092","0.053","-0.03"
"775.8000000000001","304815.0","0.085","-1.06","0.076","-10.5424272","-19.938938399999998","17.5325148","0.6876","-0.7121999999999999","-0.1082","-0.08990000000000001","92.18321261999999","1.18029348","16.134497279999998","-0.088","0.054","-0.034"
"775.8050000000001","304816.0","0.073","-1.06","0.077","-11.229976800000001","-20.340009","18.5638392","0.688","-0.7121000000000001","-0.1069","-0.08990000000000001","92.12591682000001","1.09434978","16.031364840000002","-0.078","0.054","-0.037"
"775.8100000000001","304817.0","0.061","-1.047","0.073","-11.8602306","-19.0795014","19.7097552","0.6883","-0.7119","-0.10569999999999999","-0.08990000000000001","92.06289144000002","1.0026765","15.928232399999999","-0.066","0.041","-0.033"
"775.815","304818.0","0.051","-1.043","0.072","-11.2872726","-17.761698","21.0848544","0.6887","-0.7117","-0.1045","-0.09","92.00559564","0.89954406","15.836559119999999","-0.059","0.037","-0.033"
"775.82","304819.0","0.041","-1.037","0.069","-11.1153852","-16.272007199999997","22.5172494","0.689","-0.7115","-0.10329999999999999","-0.0903","91.94257026","0.7906820400000001","15.750615419999999","-0.05","0.031","-0.031"
"775.825","304820.0","0.03","-1.032","0.065","-11.4018642","-14.152062599999999","24.0069402","0.6894","-0.7113","-0.10200000000000001","-0.0906","91.88527445999999","0.67609044","15.676130880000002","-0.041","0.026","-0.028"
"775.83","304821.0","0.017","-1.02","0.06","-11.1153852","-12.2040054","25.3247436","0.6897","-0.7111","-0.1008","-0.091","91.82797866000001","0.55003968","15.60737592","-0.031","0.015","-0.024"
"775.835","304822.0","0.001","-1.018","0.058","-10.4851314","-10.886202","26.1841806","0.6900000000000001","-0.7110000000000001","-0.0997","-0.0915","91.77068286","0.42398891999999994","15.550080119999999","-0.017","0.012","-0.023"
"775.84","304823.0","-0.003","-1.017","0.065","-11.2872726","-10.1413566","25.8404058","0.6902999999999999","-0.7108","-0.0985","-0.092","91.71338706000002","0.29793816","15.492784320000002","-0.014","0.012","-0.031"
"775.845","304824.0","0.001","-1.018","0.067","-12.1467096","-11.516455800000001","25.3247436","0.6906","-0.7106","-0.0973","-0.09240000000000001","91.65036168","0.1718874","15.42975894","-0.021","0.012","-0.034"
"775.85","304825.0","-0.007","-1.018","0.073","-12.375892799999999","-13.9228794","25.0382646","0.6909","-0.7104","-0.09609999999999999","-0.09280000000000001","91.59306588000001","0.051566219999999996","15.355274400000003","-0.014","0.012","-0.041"
"775.855","304826.0","-0.026","-1.012","0.075","-13.006146600000001","-16.329303","24.350715","0.6913","-0.7101","-0.0948","-0.093","91.5300405","-0.057295799999999994","15.269330700000001","0.002","0.006","-0.044"
"775.86","304827.0","-0.042","-1.009","0.076","-14.2666542","-18.7930224","23.3193906","0.6917","-0.7099","-0.09340000000000001","-0.0932","91.45555596","-0.1718874","15.17192784","0.017","0.003","-0.046"
"775.865","304828.0","-0.054","-1.004","0.073","-15.870936600000002","-20.1681216","22.345362","0.6921999999999999","-0.7096","-0.0921","-0.09330000000000001","91.37534184","-0.28074942","15.068795399999999","0.027","-0.001","-0.045"
"775.87","304829.0","-0.065","-1.0","0.072","-16.673077799999998","-19.938938399999998","21.6005166","0.6928","-0.7091999999999999","-0.0907","-0.09340000000000001","91.28939814","-0.38388186","14.96566296","0.036","-0.004","-0.045"
"775.875","304830.0","-0.074","-1.0","0.073","-17.1314442","-19.1367972","21.0275586","0.6933","-0.7088","-0.08940000000000001","-0.0935","91.20345444","-0.48128472","14.862530519999998","0.042","-0.004","-0.048"
"775.88","304831.0","-0.083","-0.998","0.072","-17.1314442","-17.6471064","20.912967","0.6938","-0.7085","-0.0882","-0.0936","91.11751074","-0.5844171599999999","14.770857239999998","0.049","-0.007","-0.048"
"775.885","304832.0","-0.089","-0.99","0.069","-17.3033316","-15.870936600000002","21.0275586","0.6942999999999999","-0.7081000000000001","-0.087","-0.0938","91.03156704","-0.6875496","14.69064312","0.054","-0.014","-0.046"
"775.89","304833.0","-0.097","-0.984","0.066","-17.1314442","-13.750992","21.3713334","0.6948000000000001","-0.7077","-0.0859","-0.09409999999999999","90.94562334","-0.7906820400000001","14.621888160000001","0.06","-0.02","-0.045"
"775.895","304834.0","-0.107","-0.977","0.062","-16.7303736","-11.688343199999998","21.6005166","0.6953","-0.7073","-0.0848","-0.0944","90.85967964","-0.89381448","14.558862779999998","0.069","-0.027","-0.042"
"775.9","304835.0","-0.119","-0.971","0.051","-15.699049200000001","-10.255948199999999","21.7151082","0.6957","-0.7070000000000001","-0.0836","-0.0949","90.7851951","-1.01413566","14.501566980000002","0.078","-0.033","-0.033"
"775.905","304836.0","-0.128","-0.968","0.048","-13.808287799999999","-9.3392154","21.7151082","0.6961","-0.7067","-0.08259999999999999","-0.0953","90.71644014","-1.12299768","14.455730339999999","0.086","-0.036","-0.031"
"775.91","304837.0","-0.134","-0.968","0.045","-12.8342592","-8.8235532","21.0848544","0.6964","-0.7064","-0.0817","-0.0957","90.65341476","-1.22613012","14.409893700000001","0.09","-0.036","-0.029"
"775.915","304838.0","-0.136","-0.969","0.044","-11.229976800000001","-8.021412000000002","20.05353","0.6967","-0.7061","-0.08080000000000001","-0.09609999999999999","90.59611896","-1.32353298","14.364057060000002","0.09","-0.035","-0.029"
"775.9200000000001","304839.0","-0.14","-0.97","0.049","-10.4851314","-9.3392154","18.907614000000002","0.697","-0.7059","-0.07980000000000001","-0.0964","90.54455274","-1.41520626","14.31822042","0.092","-0.034","-0.035"
"775.9250000000001","304840.0","-0.145","-0.971","0.046","-10.4278356","-9.797581800000001","17.761698","0.6973","-0.7057","-0.079","-0.0967","90.49298652","-1.5068795400000001","14.266654200000001","0.096","-0.033","-0.032"
"775.9300000000001","304841.0","-0.154","-0.969","0.052","-10.5424272","-9.969469199999999","16.558486199999997","0.6976","-0.7055","-0.0781","-0.0969","90.4414203","-1.5870936600000003","14.215087979999998","0.103","-0.035","-0.039"
"775.9350000000001","304842.0","-0.158","-0.973","0.057","-11.516455800000001","-9.740286000000001","15.2979786","0.6979","-0.7051999999999999","-0.07730000000000001","-0.09709999999999999","90.38412450000001","-1.6615782","14.16352176","0.106","-0.031","-0.046"
"775.94","304843.0","-0.156","-0.971","0.055","-12.318597","-9.5111028","14.495837400000001","0.6982999999999999","-0.7049000000000001","-0.0765","-0.0972","90.32109912","-1.73033316","14.117685119999999","0.102","-0.033","-0.045"
"775.945","304844.0","-0.16","-0.972","0.052","-12.032117999999999","-9.5683986","14.152062599999999","0.6987","-0.7046","-0.0757","-0.0974","90.26380332","-1.79908812","14.066118900000001","0.105","-0.032","-0.042"
"775.95","304845.0","-0.165","-0.976","0.052","-13.0634424","-8.078707799999998","13.750992","0.6990000000000001","-0.7043999999999999","-0.0749","-0.0978","90.20650752","-1.8907614000000001","14.02601184","0.109","-0.028","-0.044"
"775.955","304846.0","-0.166","-0.977","0.051","-13.9228794","-6.1306506","13.006146600000001","0.6994","-0.704","-0.0742","-0.098","90.13775256","-1.9595163600000003","13.99163436","0.109","-0.026","-0.043"
"775.96","304847.0","-0.164","-0.977","0.041","-14.6677248","-4.9274388","12.4331886","0.6998","-0.7036","-0.0736","-0.0983","90.06326802","-2.0168121599999997","13.96871604","0.105","-0.027","-0.035"
"775.965","304848.0","-0.164","-0.974","0.032","-14.5531332","-4.2398891999999995","12.1467096","0.7001999999999999","-0.7032","-0.073","-0.0985","89.98878348","-2.0798375399999998","13.945797720000002","0.104","-0.03","-0.028"
"775.97","304849.0","-0.17","-0.969","0.025","-14.2093584","-2.6929026","11.9748222","0.7006","-0.7028","-0.0725","-0.0989","89.92002852","-2.13713334","13.928608980000002","0.109","-0.035","-0.021"
"775.975","304850.0","-0.17","-0.962","0.02","-13.1207382","-1.0886202","11.745638999999999","0.701","-0.7025","-0.0721","-0.0992","89.85127356000001","-2.19442914","13.922879400000003","0.109","-0.042","-0.017"
"775.98","304851.0","-0.169","-0.958","0.013","-11.573751600000001","-0.1145916","11.573751600000001","0.7013","-0.7021","-0.0717","-0.0996","89.79397776","-2.25172494","13.922879400000003","0.106","-0.046","-0.012"
"775.985","304852.0","-0.177","-0.957","0.006","-10.4851314","0.859437","11.9748222","0.7015","-0.7018","-0.0713","-0.1","89.73668196000001","-2.3090207400000002","13.928608980000002","0.113","-0.046","-0.006"
"775.99","304853.0","-0.183","-0.954","0.0","-10.313244","3.0939731999999998","11.9175264","0.7018","-0.7016","-0.071","-0.10049999999999999","89.68511574","-2.37204612","13.94006814","0.118","-0.049","0.0"
"775.995","304854.0","-0.184","-0.951","-0.011","-9.6829902","5.3858052","11.516455800000001","0.702","-0.7013","-0.0707","-0.101","89.63354952","-2.42361234","13.96871604","0.118","-0.052","0.01"
"776.0","304855.0","-0.183","-0.949","-0.017","-8.4224826","7.2192708","11.0580894","0.7022","-0.701","-0.07039999999999999","-0.1018","89.58771288","-2.5152856199999998","14.003093519999998","0.116","-0.054","0.014"
"776.005","304856.0","-0.178","-0.951","-0.025","-7.734933000000001","9.167328","10.5424272","0.7024","-0.7007","-0.0703","-0.1024","89.54187624","-2.56685184","14.048930160000001","0.109","-0.053","0.022"
"776.01","304857.0","-0.173","-0.948","-0.029","-6.9327917999999995","10.6570188","9.740286000000001","0.7025","-0.7005","-0.0703","-0.1031","89.50749876","-2.61268848","14.10622596","0.103","-0.056","0.025"
"776.015","304858.0","-0.158","-0.955","-0.025","-5.844171599999999","11.745638999999999","8.59437","0.7027","-0.7003","-0.07039999999999999","-0.10369999999999999","89.47312128","-2.65852512","14.16352176","0.088","-0.049","0.02"
"776.02","304859.0","-0.145","-0.962","-0.024","-4.6409598","10.9434978","7.8495246000000005","0.7027","-0.7001000000000001","-0.07039999999999999","-0.10429999999999999","89.44447338","-2.6929025999999996","14.215087979999998","0.074","-0.042","0.019"
"776.025","304860.0","-0.14","-0.968","-0.019","-5.0420304","9.3392154","7.2192708","0.7028","-0.6999","-0.0705","-0.1048","89.42155505999999","-2.7330096599999996","14.26092462","0.068","-0.036","0.013"
"776.03","304861.0","-0.14","-0.969","-0.017","-6.0733548","8.5370742","6.302538","0.7030000000000001","-0.6997","-0.0705","-0.10529999999999999","89.38717758","-2.7616575599999997","14.306761259999998","0.067","-0.034","0.011"
"776.035","304862.0","-0.138","-0.97","-0.017","-6.875496","7.8495246000000005","5.443101","0.7031","-0.6995","-0.0705","-0.10569999999999999","89.34707052","-2.79030546","14.346868319999999","0.066","-0.034","0.01"
"776.04","304863.0","-0.136","-0.975","-0.016","-7.906820400000001","6.875496","4.5263682","0.7033","-0.6992","-0.0706","-0.1061","89.30696345999999","-2.8074942","14.381245799999999","0.063","-0.028","0.009"
"776.0450000000001","304864.0","-0.135","-0.977","-0.019","-8.8235532","6.9900876","3.8961144","0.7036","-0.6989","-0.0706","-0.10640000000000001","89.26112682","-2.83041252","14.41562328","0.062","-0.027","0.011"
"776.0500000000001","304865.0","-0.138","-0.975","-0.022","-9.0527364","7.5057498","3.437748","0.7038","-0.6986","-0.0706","-0.10700000000000001","89.20383102000001","-2.87051958","14.450000759999998","0.064","-0.028","0.013"
"776.0550000000001","304866.0","-0.141","-0.975","-0.026","-9.2246238","8.136003599999999","2.9220857999999996","0.7041000000000001","-0.6982999999999999","-0.0707","-0.10729999999999999","89.15799438","-2.88197874","14.49010782","0.066","-0.029","0.016"
"776.0600000000001","304867.0","-0.142","-0.969","-0.032","-9.8548776","9.2246238","2.4064236","0.7043","-0.6979","-0.0708","-0.10769999999999999","89.10642816","-2.8934379","14.53594446","0.067","-0.034","0.021"
"776.065","304868.0","-0.133","-0.964","-0.044","-8.9954406","9.969469199999999","1.718874","0.7046","-0.6976","-0.071","-0.1081","89.05486194","-2.90489706","14.58751068","0.058","-0.039","0.032"
"776.07","304869.0","-0.125","-0.963","-0.047","-7.6203414","9.3965112","1.145916","0.7048","-0.6973","-0.0713","-0.10840000000000001","89.01475488","-2.90489706","14.633347319999999","0.05","-0.04","0.035"
"776.075","304870.0","-0.121","-0.964","-0.057","-5.72958","8.2505952","0.6302538","0.7049000000000001","-0.6971","-0.0715","-0.10869999999999999","88.98610698","-2.91062664","14.673454379999999","0.045","-0.04","0.043"
"776.08","304871.0","-0.116","-0.971","-0.055","-5.0420304","6.9327917999999995","-0.0572958","0.7051000000000001","-0.6969000000000001","-0.0717","-0.1089","88.95745908","-2.91062664","14.707831860000002","0.041","-0.033","0.041"
"776.085","304872.0","-0.108","-0.971","-0.059","-5.3858052","6.760904399999999","-0.9740286","0.7051999999999999","-0.6967","-0.07189999999999999","-0.1091","88.92881118","-2.90489706","14.742209339999999","0.033","-0.033","0.045"
"776.09","304873.0","-0.106","-0.974","-0.056","-5.2139178","5.6722842","-1.8907614000000001","0.7054","-0.6965","-0.0721","-0.1093","88.90016328","-2.8934379","14.770857239999998","0.031","-0.03","0.041"
"776.095","304874.0","-0.099","-0.979","-0.046","-5.72958","5.0993262","-2.6356068","0.7055","-0.6963","-0.0723","-0.1093","88.87151537999999","-2.87624916","14.799505140000003","0.024","-0.025","0.031"
"776.1","304875.0","-0.089","-0.977","-0.051","-5.2712136","4.1825934","-3.2085648","0.7058","-0.696","-0.07239999999999999","-0.1095","88.81994916","-2.87051958","14.816693879999999","0.014","-0.027","0.034"
"776.105","304876.0","-0.091","-0.988","-0.044","-5.0420304","3.6096354","-3.0939731999999998","0.706","-0.6958","-0.0726","-0.1095","88.79130126","-2.85333084","14.8396122","0.017","-0.016","0.027"
"776.11","304877.0","-0.09","-0.992","-0.048","-6.0733548","4.5263682","-3.2658606","0.7062","-0.6956","-0.0728","-0.1096","88.76265336","-2.8361421","14.85680094","0.016","-0.012","0.03"
"776.115","304878.0","-0.081","-0.991","-0.051","-5.9587632","5.3858052","-3.437748","0.7064","-0.6954","-0.0731","-0.1096","88.72827588","-2.81895336","14.885448839999999","0.007","-0.013","0.033"
"776.12","304879.0","-0.073","-0.994","-0.05","-5.0420304","6.2452422","-2.9793816","0.7065","-0.6952","-0.0733","-0.10969999999999999","88.69962798","-2.8074942","14.914096740000002","0.0","-0.01","0.032"
"776.125","304880.0","-0.075","-0.997","-0.054","-4.4690724","6.589017","-2.4637194","0.7066","-0.6950000000000001","-0.0736","-0.1099","88.67670966","-2.79030546","14.94847422","0.001","-0.008","0.035"
"776.13","304881.0","-0.073","-0.993","-0.058","-4.297185","6.9900876","-2.3491278","0.7068","-0.6948000000000001","-0.0738","-0.11000000000000001","88.65379134000001","-2.7788463","14.982851700000001","0.0","-0.011","0.038"
"776.135","304882.0","-0.07","-0.993","-0.055","-3.7815228000000003","7.9641162","-2.1772404","0.7069","-0.6946","-0.0741","-0.1102","88.63087302","-2.76738714","15.02295876","-0.002","-0.011","0.035"
"776.14","304883.0","-0.064","-0.987","-0.057","-2.6929026","7.2192708","-2.0053530000000004","0.7069","-0.6945","-0.0744","-0.11040000000000001","88.61941386","-2.75592798","15.057336240000001","-0.007","-0.017","0.037"
"776.145","304884.0","-0.067","-0.988","-0.06","-1.2605076","6.5317212","-1.8334656","0.7070000000000001","-0.6944","-0.0747","-0.1105","88.6079547","-2.74446882","15.091713719999998","-0.004","-0.017","0.04"
"776.15","304885.0","-0.07","-0.984","-0.062","-1.0886202","6.6463128000000005","-1.718874","0.7072","-0.6942","-0.0749","-0.11069999999999999","88.56784764","-2.7330096599999996","15.126091200000001","-0.002","-0.02","0.041"
"776.155","304886.0","-0.067","-0.982","-0.067","-0.3437748","6.4171296","-2.0626488","0.7072","-0.6940999999999999","-0.0752","-0.11080000000000001","88.56784764","-2.7215505","15.16046868","-0.004","-0.022","0.046"
"776.16","304887.0","-0.064","-0.985","-0.062","0.859437","6.016058999999999","-1.7761698","0.7071","-0.6940999999999999","-0.0754","-0.11100000000000002","88.56784764","-2.7158209199999996","15.189116579999999","-0.007","-0.02","0.041"
"776.165","304888.0","-0.069","-0.982","-0.064","0.9167328","6.0733548","-1.6042824","0.7071","-0.6940999999999999","-0.0756","-0.1111","88.57357721999999","-2.70436176","15.21776448","-0.002","-0.022","0.043"
"776.1700000000001","304889.0","-0.07","-0.983","-0.063","1.3750992","5.786875800000001","-1.9480572","0.7070000000000001","-0.6940999999999999","-0.0759","-0.11120000000000001","88.57930680000001","-2.6929025999999996","15.24641238","-0.001","-0.021","0.042"
"776.1750000000001","304890.0","-0.06","-0.986","-0.057","2.2345362","5.2139178","-2.4064236","0.7070000000000001","-0.6942","-0.0761","-0.1113","88.59076596","-2.6814434400000002","15.27506028","-0.01","-0.018","0.036"
"776.1800000000001","304891.0","-0.058","-0.992","-0.057","2.8074942000000003","3.8388186","-2.4064236","0.7069","-0.6942","-0.0763","-0.1113","88.60222512","-2.6699842800000004","15.29224902","-0.012","-0.012","0.036"
"776.1850000000001","304892.0","-0.057","-1.0","-0.054","2.578311","3.2085648","-2.2345362","0.7068","-0.6942999999999999","-0.0765","-0.1113","88.61368428","-2.65852512","15.30943776","-0.013","-0.004","0.034"
"776.19","304893.0","-0.054","-0.998","-0.055","2.4064236","3.0939731999999998","-2.4064236","0.7067","-0.6942999999999999","-0.0767","-0.11140000000000001","88.62514344","-2.64706596","15.326626499999998","-0.016","-0.007","0.035"
"776.195","304894.0","-0.052","-0.999","-0.049","2.86479","2.3491278","-2.1772404","0.7066","-0.6944","-0.07680000000000001","-0.1113","88.64233218000001","-2.6356068","15.33808566","-0.018","-0.005","0.029"
"776.2","304895.0","-0.058","-0.999","-0.041","2.291832","1.718874","-2.0053530000000004","0.7068","-0.6942999999999999","-0.077","-0.1113","88.62514344","-2.61268848","15.343815240000001","-0.012","-0.005","0.021"
"776.205","304896.0","-0.061","-1.0","-0.048","1.6615782000000001","2.0053530000000004","-2.0053530000000004","0.7067","-0.6942999999999999","-0.0772","-0.1113","88.63087302","-2.6012293200000003","15.355274400000003","-0.009","-0.005","0.028"
"776.21","304897.0","-0.062","-0.999","-0.05","1.7761698","2.3491278","-1.9480572","0.7067","-0.6942999999999999","-0.07730000000000001","-0.1113","88.64233218000001","-2.58977016","15.36673356","-0.007","-0.005","0.03"
"776.215","304898.0","-0.061","-0.995","-0.052","2.0053530000000004","2.4637194","-1.8334656","0.7066","-0.6944","-0.0774","-0.1113","88.64806175999999","-2.58404058","15.378192720000001","-0.008","-0.009","0.032"
"776.22","304899.0","-0.065","-0.995","-0.052","2.1772404","1.8334656","-1.6042824","0.7065","-0.6944","-0.0776","-0.1113","88.65952092","-2.57258142","15.389651879999999","-0.004","-0.009","0.032"
"776.225","304900.0","-0.071","-0.992","-0.05","1.9480572","2.1199445999999997","-1.6042824","0.7065","-0.6945","-0.0777","-0.1113","88.67098008","-2.56685184","15.40111104","0.001","-0.012","0.031"
"776.23","304901.0","-0.079","-0.99","-0.052","1.8334656","2.2345362","-1.7761698","0.7064","-0.6945","-0.07780000000000001","-0.1113","88.67670966","-2.5553926799999997","15.4125702","0.01","-0.014","0.033"
"776.235","304902.0","-0.085","-0.983","-0.054","1.7761698","2.3491278","-2.0626488","0.7064","-0.6946","-0.078","-0.1113","88.68816882","-2.54393352","15.42402936","0.016","-0.022","0.035"
"776.24","304903.0","-0.086","-0.983","-0.056","1.9480572","2.291832","-2.578311","0.7062999999999999","-0.6946","-0.0781","-0.1113","88.69962798","-2.53247436","15.435488519999998","0.017","-0.021","0.037"
"776.245","304904.0","-0.086","-0.985","-0.055","1.8334656","1.8334656","-3.3231564000000002","0.7062999999999999","-0.6947","-0.07830000000000001","-0.11120000000000001","88.70535756","-2.5152856199999998","15.4412181","0.018","-0.019","0.036"
"776.25","304905.0","-0.085","-0.984","-0.054","1.5469865999999999","1.2032118","-4.068001799999999","0.7064","-0.6945","-0.07830000000000001","-0.1113","88.67670966","-2.5152856199999998","15.452677260000002","0.017","-0.02","0.036"
"776.255","304906.0","-0.079","-0.985","-0.052","2.3491278","0.4010706","-4.7555514","0.7064","-0.6945","-0.0785","-0.11120000000000001","88.68816882","-2.4923673","15.452677260000002","0.011","-0.019","0.033"
"776.26","304907.0","-0.064","-0.989","-0.049","3.6096354","-0.859437","-5.5003968","0.7062999999999999","-0.6946","-0.0786","-0.11100000000000002","88.70535756","-2.4637194","15.44694768","-0.002","-0.015","0.03"
"776.265","304908.0","-0.067","-0.989","-0.048","4.297185","-2.86479","-5.72958","0.7062","-0.6947","-0.0787","-0.11069999999999999","88.72827588","-2.4350715000000003","15.435488519999998","0.0","-0.015","0.03"
"776.27","304909.0","-0.068","-0.989","-0.05","4.297185","-3.5523396","-5.9587632","0.7061","-0.6949","-0.07880000000000001","-0.11040000000000001","88.7511942","-2.4064235999999997","15.418299779999998","0.001","-0.016","0.032"
"776.275","304910.0","-0.064","-0.991","-0.047","4.8128472","-3.8388186","-6.1306506","0.706","-0.6950000000000001","-0.0789","-0.1101","88.77411251999999","-2.3777757","15.39538146","-0.001","-0.014","0.029"
"776.28","304911.0","-0.06","-0.996","-0.04","4.9847345999999995","-3.6096354","-5.9587632","0.7059","-0.6952","-0.079","-0.10980000000000001","88.80276042","-2.3491277999999998","15.378192720000001","-0.004","-0.009","0.022"
"776.285","304912.0","-0.052","-0.997","-0.038","5.3858052","-3.0366774","-5.6722842","0.7058","-0.6953","-0.0791","-0.1095","88.83140832000001","-2.3204799","15.361003980000001","-0.012","-0.008","0.021"
"776.29","304913.0","-0.054","-0.999","-0.04","6.5317212","-3.8961144","-5.2139178","0.7056","-0.6955","-0.0792","-0.1092","88.8657858","-2.29756158","15.343815240000001","-0.009","-0.006","0.023"
"776.2950000000001","304914.0","-0.06","-1.002","-0.033","6.589017","-4.4117766","-4.9274388","0.7054","-0.6958","-0.0792","-0.1089","88.90016328","-2.2746432600000004","15.32089692","-0.003","-0.002","0.018"
"776.3000000000001","304915.0","-0.067","-1.0","-0.033","5.9014674","-3.6096354","-4.6982556","0.7053","-0.6959","-0.07930000000000001","-0.1086","88.91735202","-2.25172494","15.303708179999997","0.003","-0.004","0.019"
"776.3050000000001","304916.0","-0.07","-0.998","-0.032","5.443101","-3.0366774","-4.4690724","0.7051999999999999","-0.696","-0.07930000000000001","-0.10840000000000001","88.94599991999999","-2.22880662","15.286519440000001","0.006","-0.007","0.017"
"776.3100000000001","304917.0","-0.071","-0.998","-0.032","4.9847345999999995","-2.3491278","-4.4117766","0.7051000000000001","-0.6961999999999999","-0.0794","-0.1082","88.97464782","-2.21161788","15.27506028","0.008","-0.007","0.018"
"776.315","304918.0","-0.073","-0.995","-0.038","4.1252976","-2.1772404","-4.2398891999999995","0.705","-0.6963","-0.0795","-0.10800000000000001","88.99756613999999","-2.18869956","15.26360112","0.01","-0.009","0.025"
"776.32","304919.0","-0.078","-0.983","-0.044","3.724227","-1.718874","-4.1252976","0.7049000000000001","-0.6964","-0.0796","-0.1078","89.01475488","-2.1657812400000003","15.25214196","0.016","-0.021","0.031"
"776.325","304920.0","-0.073","-0.978","-0.049","4.297185","-1.3750992","-4.068001799999999","0.7048","-0.6966","-0.07970000000000001","-0.1076","89.0376732","-2.1485925000000003","15.24641238","0.011","-0.026","0.036"
"776.33","304921.0","-0.076","-0.965","-0.064","5.443101","-1.7761698","-3.7815228000000003","0.7046","-0.6967","-0.07980000000000001","-0.10740000000000001","89.06632110000001","-2.13140376","15.240682800000002","0.014","-0.039","0.052"
"776.335","304922.0","-0.077","-0.962","-0.064","7.5057498","-1.9480572","-3.5523396","0.7043999999999999","-0.697","-0.0799","-0.1072","89.10642816","-2.11421502","15.22922364","0.016","-0.043","0.052"
"776.34","304923.0","-0.08","-0.958","-0.068","8.8235532","-2.6929026","-3.6669312","0.7041999999999999","-0.6972","-0.08","-0.10700000000000001","89.1522648","-2.09702628","15.21776448","0.019","-0.047","0.057"
"776.345","304924.0","-0.089","-0.946","-0.071","11.0580894","-3.8388186","-3.724227","0.7039","-0.6976","-0.08","-0.10669999999999999","89.2095606","-2.07410796","15.19484616","0.029","-0.058","0.06"
"776.35","304925.0","-0.093","-0.949","-0.064","12.605076","-4.4117766","-3.8961144","0.7036","-0.6979","-0.0799","-0.1065","89.24966766","-2.06837838","15.17765742","0.033","-0.056","0.055"
"776.355","304926.0","-0.106","-0.938","-0.061","12.9488508","-4.9274388","-4.297185","0.7033","-0.6982999999999999","-0.08","-0.1062","89.31842262","-2.0511896399999996","15.149009520000002","0.046","-0.066","0.053"
"776.36","304927.0","-0.116","-0.942","-0.053","13.521808799999999","-4.6982556","-4.7555514","0.7029","-0.6987","-0.0801","-0.1059","89.38717758","-2.02827132","15.126091200000001","0.057","-0.062","0.046"
"776.365","304928.0","-0.121","-0.939","-0.059","13.407217200000002","-4.4690724","-5.5003968","0.7025","-0.6990999999999999","-0.0801","-0.1055","89.45593253999999","-1.99962342","15.10890246","0.062","-0.065","0.053"
"776.37","304929.0","-0.131","-0.931","-0.062","13.9228794","-5.2712136","-6.016058999999999","0.7021","-0.6996","-0.08020000000000001","-0.1051","89.53041707999999","-1.97097552","15.08025456","0.072","-0.074","0.057"
"776.375","304930.0","-0.141","-0.925","-0.067","13.808287799999999","-4.9274388","-6.703608600000001","0.7017","-0.7","-0.0804","-0.1048","89.59917204","-1.9365980400000002","15.057336240000001","0.082","-0.08","0.064"
"776.38","304931.0","-0.144","-0.916","-0.069","13.9228794","-4.9274388","-7.448454","0.7013","-0.7003999999999999","-0.0805","-0.10429999999999999","89.66792699999999","-1.90222056","15.034417920000001","0.086","-0.088","0.067"
"776.385","304932.0","-0.145","-0.904","-0.08","14.5531332","-5.2712136","-8.136003599999999","0.7009000000000001","-0.7009000000000001","-0.0806","-0.10389999999999999","89.74814112","-1.8621135","15.00577002","0.089","-0.1","0.079"
"776.39","304933.0","-0.147","-0.885","-0.085","16.4438946","-6.016058999999999","-8.9381448","0.7005","-0.7014","-0.08080000000000001","-0.1034","89.82835524000001","-1.8220064400000002","14.977122119999999","0.091","-0.119","0.086"
"776.395","304934.0","-0.132","-0.855","-0.072","16.7876694","-6.589017","-10.026765","0.7","-0.7019","-0.081","-0.1028","89.91429894","-1.77044022","14.94274464","0.078","-0.149","0.073"
"776.4","304935.0","-0.108","-0.844","-0.044","16.157415599999997","-6.8182002","-9.3965112","0.6996","-0.7024","-0.0811","-0.10229999999999999","89.99451306","-1.73606274","14.914096740000002","0.054","-0.16","0.047"
"776.405","304936.0","-0.142","-0.807","-0.1","16.615782","-8.3651868","-8.307891","0.6992","-0.7029","-0.08120000000000001","-0.1018","90.08045675999999","-1.6902260999999998","14.8682601","0.089","-0.197","0.104"
"776.41","304937.0","-0.161","-0.804","-0.092","21.199446","-10.313244","-10.255948199999999","0.6986","-0.7035","-0.0813","-0.1011","90.18931878","-1.64438946","14.822423460000001","0.108","-0.199","0.098"
"776.415","304938.0","-0.128","-0.794","-0.089","20.3973048","-7.3911582000000005","-12.7769634","0.6980000000000001","-0.7041999999999999","-0.08149999999999999","-0.1004","90.29245122","-1.5813640800000002","14.788045980000001","0.077","-0.209","0.097"
"776.4200000000001","304939.0","-0.144","-0.782","-0.122","26.298772200000002","-11.516455800000001","-14.782316400000001","0.6973","-0.705","-0.0817","-0.0995","90.42996114","-1.5068795400000001","14.730750180000001","0.094","-0.222","0.132"
"776.4250000000001","304940.0","-0.152","-0.776","-0.116","31.684577400000002","-14.2093584","-18.3919518","0.6965","-0.706","-0.08199999999999999","-0.0984","90.59038938","-1.41520626","14.66199522","0.104","-0.228","0.129"
"776.4300000000001","304941.0","-0.125","-0.766","-0.115","34.492071599999996","-15.0687954","-22.058883","0.6955","-0.7070000000000001","-0.0824","-0.0972","90.76800636","-1.30634424","14.58751068","0.079","-0.238","0.131"
"776.4350000000001","304942.0","-0.121","-0.763","-0.092","39.0757356","-18.8503182","-24.350715","0.6945","-0.7081999999999999","-0.0827","-0.0958","90.96854166","-1.18602306","14.501566980000002","0.076","-0.241","0.111"
"776.44","304943.0","-0.112","-0.773","-0.071","43.2010332","-23.2620948","-26.642547","0.6933","-0.7095","-0.08299999999999999","-0.09409999999999999","91.19199528","-1.05424272","14.38697538","0.07","-0.23","0.094"
"776.445","304944.0","-0.115","-0.777","-0.065","44.919907200000004","-24.923673","-28.4187168","0.6921","-0.7109","-0.0833","-0.09240000000000001","91.42117848","-0.9110032200000001","14.272383780000002","0.076","-0.227","0.092"
"776.45","304945.0","-0.121","-0.771","-0.053","46.5814854","-25.8404058","-30.4240698","0.6909","-0.7123","-0.0837","-0.0905","91.65036168","-0.76776372","14.14633302","0.084","-0.232","0.084"
"776.455","304946.0","-0.113","-0.771","-0.038","47.6128098","-26.5279554","-32.2002396","0.6896","-0.7137","-0.0841","-0.0886","91.89673362","-0.6016058999999999","14.02601184","0.079","-0.232","0.073"
"776.46","304947.0","-0.1","-0.772","-0.023","49.274388","-26.2414764","-33.4607472","0.6881999999999999","-0.7152000000000001","-0.08449999999999999","-0.0866","92.14883513999999","-0.43544808","13.89996108","0.069","-0.231","0.062"
"776.465","304948.0","-0.09","-0.768","-0.005","50.5348956","-24.8090814","-34.091001","0.6868000000000001","-0.7167","-0.08499999999999999","-0.0847","92.40666624","-0.26356068","13.78536948","0.063","-0.235","0.049"
"776.47","304949.0","-0.075","-0.761","0.01","53.2277982","-24.0069402","-35.0650296","0.6854","-0.7182999999999999","-0.0856","-0.0827","92.67595650000001","-0.0859437","13.67650746","0.051","-0.242","0.037"
"776.475","304950.0","-0.052","-0.773","0.04","53.2277982","-21.7151082","-35.6952834","0.6839000000000001","-0.7199","-0.0863","-0.08080000000000001","92.94524676","0.09167328","13.584834179999998","0.031","-0.23","0.012"
"776.48","304951.0","-0.043","-0.782","0.051","53.285094","-20.9702628","-35.4088044","0.6824","-0.7214","-0.0869","-0.0789","93.21453702","0.26929026","13.487431320000002","0.026","-0.22","0.006"
"776.485","304952.0","-0.004","-0.789","0.067","52.597544400000004","-19.7097552","-35.3515086","0.6809000000000001","-0.7229","-0.0876","-0.0771","93.48382727999999","0.44690724","13.4072172","-0.01","-0.213","-0.004"
"776.49","304953.0","-0.002","-0.781","0.081","53.399685600000005","-19.938938399999998","-34.37748","0.6793","-0.7245","-0.0883","-0.0753","93.75311753999999","0.61879464","13.3212735","-0.008","-0.22","-0.014"
"776.495","304954.0","0.01","-0.8","0.114","54.717489","-20.110825799999997","-35.1796212","0.6778","-0.7261","-0.089","-0.07339999999999999","94.03386695999998","0.8021412000000001","13.235329799999999","-0.018","-0.201","-0.042"
"776.5","304955.0","0.077","-0.807","0.117","53.686164600000005","-19.5378678","-36.3255372","0.6761999999999999","-0.7276","-0.0898","-0.0715","94.30888680000001","0.9912173399999998","13.15511568","-0.081","-0.194","-0.041"
"776.505","304956.0","0.093","-0.818","0.119","55.462334399999996","-22.746432600000002","-35.1796212","0.6746000000000001","-0.7292","-0.09040000000000001","-0.0696","94.58963622","1.1745638999999999","13.05771282","-0.095","-0.183","-0.038"
"776.51","304957.0","0.083","-0.827","0.139","56.0925882","-24.637194","-34.663959","0.673","-0.7308","-0.091","-0.06760000000000001","94.87038564","1.35218088","12.954580380000001","-0.081","-0.173","-0.053"
"776.515","304958.0","0.135","-0.834","0.114","54.316418399999996","-26.699842800000003","-34.950438","0.6714","-0.7323999999999999","-0.0915","-0.0655","95.1396759","1.53552744","12.839988780000002","-0.13","-0.166","-0.024"
"776.52","304959.0","0.133","-0.83","0.157","55.6342218","-30.0229992","-33.6899304","0.6698000000000001","-0.734","-0.0918","-0.0634","95.42042532","1.7131444200000001","12.70820844","-0.125","-0.17","-0.062"
"776.525","304960.0","0.163","-0.843","0.142","57.5249832","-28.934379","-32.7159018","0.6681","-0.7356","-0.0922","-0.0613","95.70690432","1.88503182","12.58215768","-0.152","-0.157","-0.042"
"776.53","304961.0","0.154","-0.838","0.168","59.587632","-30.939732000000003","-30.4813656","0.6664","-0.7373999999999999","-0.09240000000000001","-0.0593","96.01057206","2.0511896399999996","12.44464776","-0.139","-0.16","-0.063"
"776.535","304962.0","0.176","-0.823","0.172","59.4730404","-29.679224400000003","-28.8197874","0.6646","-0.7391","-0.0926","-0.0573","96.30278064000001","2.2058883000000002","12.318597","-0.159","-0.174","-0.062"
"776.54","304963.0","0.187","-0.811","0.183","61.2492102","-27.043617599999997","-25.5539268","0.6628000000000001","-0.7408","-0.09280000000000001","-0.055400000000000005","96.61217795999998","2.34339822","12.198275820000001","-0.167","-0.186","-0.068"
"776.5450000000001","304964.0","0.211","-0.822","0.227","62.68160520000001","-24.9809688","-21.9442914","0.6609","-0.7426","-0.093","-0.0538","96.92730486","2.4637194","12.089413799999999","-0.188","-0.174","-0.106"
"776.5500000000001","304965.0","0.208","-0.834","0.232","63.0826758","-23.5485738","-17.475219","0.6589","-0.7445","-0.0931","-0.0522","97.24816134","2.57258142","11.986281360000001","-0.184","-0.162","-0.106"
"776.5550000000001","304966.0","0.18","-0.835","0.228","62.796196800000004","-22.1161788","-14.037471","0.6569","-0.7463","-0.0931","-0.0508","97.56328823999999","2.65279554","11.8888785","-0.154","-0.159","-0.096"
