SensorId, TimeStamp (s), FrameNumber, AccX (g), AccY (g), AccZ (g), GyroX (deg/s), GyroY (deg/s), GyroZ (deg/s), MagX (uT), MagY (uT), MagZ (uT), EulerX (deg), EulerY (deg), EulerZ (deg), QuatW, QuatX, QuatY, QuatZ, LinAccX (g), LinAccY (g), LinAccZ (g), Pressure (kPa), Altitude (m), Temperature (degC), HeaveMotion (m)
1, -0.0001, 0, 0.77829570, 0.13813315, 0.66445589, 3.02612472, -2.59317350, 1.76222253, 0.00000000, 0.00000000, 0.00000000, -169.88928223, 48.97771072, -152.29006958, -0.42009339, -0.18161203, 0.88887405, 0.02101762, -0.02384145, -0.02290917, -0.01829613, 0.00000000, 0.00000000, 0.00000000, 0.00000000
1, 0.0024, 1, 0.78070176, 0.13812190, 0.66788447, 2.81071854, -1.61946487, 1.83384585, 0.00000000, 0.00000000, 0.00000000, -169.88662720, 48.98250961, -152.29585266, -0.42013505, -0.18154994, 0.88886768, 0.02098634, -0.02619267, -0.02287907, -0.02179229, 0.00000000, 0.00000000, 0.00000000, 0.00000000
1, 0.0049, 2, 0.77919286, 0.14003205, 0.67080438, 2.87872982, -0.78352785, 1.90835547, 0.00000000, 0.00000000, 0.00000000, -169.88442993, 48.98527145, -152.30247498, -0.42016080, -0.18148619, 0.88886935, 0.02095111, -0.02465212, -0.02477087, -0.02475250, 0.00000000, 0.00000000, 0.00000000, 0.00000000
1, 0.0074, 3, 0.77817208, 0.14243387, 0.67324364, 2.59314823, -0.01925320, 1.97813034, 0.00000000, 0.00000000, 0.00000000, -169.88352966, 48.98619461, -152.30989075, -0.42017058, -0.18142405, 0.88887817, 0.02091903, -0.02362078, -0.02716470, -0.02720547, 0.00000000, 0.00000000, 0.00000000, 0.00000000
1, 0.0099, 4, 0.77666783, 0.14434765, 0.67567647, 2.30634260, 0.88316196, 2.18807387, 0.00000000, 0.00000000, 0.00000000, -169.88439941, 48.98498154, -152.31869507, -0.42016155, -0.18136087, 0.88889599, 0.02089086, -0.02213043, -0.02908553, -0.02962077, 0.00000000, 0.00000000, 0.00000000, 0.00000000
1, 0.0124, 5, 0.77520442, 0.14433905, 0.67566460, 1.87924647, 1.64664340, 2.25608325, 0.00000000, 0.00000000, 0.00000000, -169.88693237, 48.98192596, -152.32826233, -0.42013600, -0.18130064, 0.88892084, 0.02086858, -0.02070213, -0.02909825, -0.02956415, 0.00000000, 0.00000000, 0.00000000, 0.00000000
1, 0.0149, 6, 0.77079076, 0.14429498, 0.67806405, 1.59285891, 2.54966736, 2.39626455, 0.00000000, 0.00000000, 0.00000000, -169.89102173, 48.97668839, -152.33895874, -0.42009181, -0.18124074, 0.88895452, 0.02084957, -0.01634825, -0.02908815, -0.03188766, 0.00000000, 0.00000000, 0.00000000, 0.00000000
1, 0.0174, 7, 0.76738411, 0.14232691, 0.67900062, 1.16589689, 2.96353555, 2.60218906, 0.00000000, 0.00000000, 0.00000000, -169.89695740, 48.97053528, -152.35069275, -0.42003775, -0.18118092, 0.88899249, 0.02083909, -0.01301217, -0.02717288, -0.03273261, 0.00000000, 0.00000000, 0.00000000, 0.00000000
1, 0.0199, 8, 0.76252419, 0.14133522, 0.67798227, 0.80830419, 3.72558689, 2.88036847, 0.00000000, 0.00000000, 0.00000000, -169.90495300, 48.96263123, -152.36398315, -0.41996735, -0.18111935, 0.88903838, 0.02083508, -0.00824285, -0.02625319, -0.03159560, 0.00000000, 0.00000000, 0.00000000, 0.00000000
1, 0.0224, 9, 0.75817519, 0.13987583, 0.67501760, 0.38217789, 4.14067268, 2.94676781, 0.00000000, 0.00000000, 0.00000000, -169.91441345, 48.95373154, -152.37777710, -0.41988721, -0.18106057, 0.88908815, 0.02083831, -0.00399578, -0.02488000, -0.02849657, 0.00000000, 0.00000000, 0.00000000, 0.00000000
1, 0.0249, 10, 0.75087631, 0.13886978, 0.67397952, -0.04478417, 4.55454063, 3.15269232, 0.00000000, 0.00000000, 0.00000000, -169.92572021, 48.94389725, -152.39262390, -0.41979721, -0.18100189, 0.88914222, 0.02085007, 0.00319034, -0.02397896, -0.02730841, 0.00000000, 0.00000000, 0.00000000, 0.00000000
1, 0.0274, 11, 0.74750215, 0.13643849, 0.67199171, -0.25995168, 4.68905687, 3.56926322, 0.00000000, 0.00000000, 0.00000000, -169.93881226, 48.93392181, -152.40911865, -0.41970363, -0.18093717, 0.88919914, 0.02086928, 0.00645012, -0.02167240, -0.02516502, 0.00000000, 0.00000000, 0.00000000, 0.00000000
1, 0.0299, 12, 0.74365371, 0.13303766, 0.66950816, -0.68430197, 4.61699772, 3.56364584, 0.00000000, 0.00000000, 0.00000000, -169.95289612, 48.92411804, -152.42555237, -0.41960976, -0.18087640, 0.88925517, 0.02089696, 0.01018614, -0.01840812, -0.02252615, 0.00000000, 0.00000000, 0.00000000, 0.00000000
1, 0.0324, 13, 0.73929602, 0.13254862, 0.66654831, -0.96836132, 4.68387270, 3.69996262, 0.00000000, 0.00000000, 0.00000000, -169.96810913, 48.91419983, -152.44250488, -0.41951337, -0.18081562, 0.88931221, 0.02093114, 0.01443011, -0.01806811, -0.01940740, 0.00000000, 0.00000000, 0.00000000, 0.00000000
1, 0.0349, 14, 0.73448557, 0.12866418, 0.66308039, -1.25164473, 4.47203064, 3.83499122, 0.00000000, 0.00000000, 0.00000000, -169.98428345, 48.90485382, -152.45983887, -0.41941991, -0.18075472, 0.88936764, 0.02097288, 0.01913333, -0.01434512, -0.01578623, 0.00000000, 0.00000000, 0.00000000, 0.00000000
1, 0.0374, 15, 0.72869170, 0.12672198, 0.65864044, -1.46420014, 4.12061882, 4.04002094, 0.00000000, 0.00000000, 0.00000000, -170.00140381, 48.89646912, -152.47769165, -0.41933233, -0.18069161, 0.88942063, 0.02102201, 0.02483100, -0.01257712, -0.01120347, 0.00000000, 0.00000000, 0.00000000, 0.00000000
1, 0.0399, 16, 0.72483915, 0.12429514, 0.65567476, -1.74584198, 3.77124548, 3.96511722, 0.00000000, 0.00000000, 0.00000000, -170.01385498, 48.87910080, -152.49264526, -0.41918328, -0.18064757, 0.88949972, 0.02102588, 0.02848423, -0.01025129, -0.00798815, 0.00000000, 0.00000000, 0.00000000, 0.00000000
1, 0.0424, 17, 0.72294116, 0.11992813, 0.65417600, -1.88619244, 3.35237765, 3.96141982, 0.00000000, 0.00000000, 0.00000000, -170.03140259, 48.87256622, -152.50967407, -0.41910899, -0.18058948, 0.88954508, 0.02108550, 0.03030718, -0.00606778, -0.00636995, 0.00000000, 0.00000000, 0.00000000, 0.00000000
1, 0.0449, 18, 0.72055274, 0.11848753, 0.65025306, -1.95562172, 2.72425985, 4.02740192, 0.00000000, 0.00000000, 0.00000000, -170.04899597, 48.86758423, -152.52655029, -0.41904661, -0.18053047, 0.88958508, 0.02114954, 0.03263868, -0.00481481, -0.00234771, 0.00000000, 0.00000000, 0.00000000, 0.00000000
1, 0.0824, 19, 0.75906205, 0.09415414, 0.62559992, -1.56582224, -3.72773457, 1.00207829, 0.00000000, 0.00000000, 0.00000000, -170.22787476, 48.94148254, -152.66365051, -0.41935375, -0.18000855, 0.88952047, 0.02219741, -0.00502312, 0.01733027, 0.02169949, 0.00000000, 0.00000000, 0.00000000, 0.00000000
1, 0.0849, 20, 0.76440036, 0.09514140, 0.62759614, -1.42344177, -3.58575702, 0.79520005, 0.00000000, 0.00000000, 0.00000000, -170.23193359, 48.95064545, -152.66432190, -0.41941735, -0.18000439, 0.88949007, 0.02224639, -0.01025635, 0.01627664, 0.01959217, 0.00000000, 0.00000000, 0.00000000, 0.00000000
1, 0.0874, 21, 0.76878160, 0.09564874, 0.62812114, -1.21133411, -3.37492061, 0.72905135, 0.00000000, 0.00000000, 0.00000000, -170.23538208, 48.95927811, -152.66487122, -0.41947773, -0.17999969, 0.88946146, 0.02228982, -0.01453871, 0.01571111, 0.01896203, 0.00000000, 0.00000000, 0.00000000, 0.00000000
1, 0.0899, 22, 0.77461195, 0.09615370, 0.63011885, -1.13932276, -3.37269759, 0.52064657, 0.00000000, 0.00000000, 0.00000000, -170.25103760, 48.98742294, -152.67179871, -0.41966879, -0.17996079, 0.88937521, 0.02244697, -0.02004671, 0.01496660, 0.01662958, 0.00000000, 0.00000000, 0.00000000, 0.00000000
1, 0.0924, 23, 0.77898848, 0.09665737, 0.63113075, -1.13887501, -3.23212194, 0.38176569, 0.00000000, 0.00000000, 0.00000000, -170.25340271, 48.99553680, -152.67114258, -0.41972685, -0.17996223, 0.88934660, 0.02248525, -0.02433020, 0.01441824, 0.01551682, 0.00000000, 0.00000000, 0.00000000, 0.00000000
1, 0.0949, 24, 0.78238535, 0.09812929, 0.63165271, -0.92737907, -2.95221543, 0.38570160, 0.00000000, 0.00000000, 0.00000000, -170.25537109, 49.00297546, -152.67070007, -0.41978031, -0.17996180, 0.88932061, 0.02251836, -0.02764189, 0.01290747, 0.01490211, 0.00000000, 0.00000000, 0.00000000, 0.00000000
1, 0.0974, 25, 0.78725028, 0.09961347, 0.63169950, -0.71613652, -2.88256383, 0.52819628, 0.00000000, 0.00000000, 0.00000000, -170.25724792, 49.01030731, -152.67082214, -0.41983318, -0.17995669, 0.88929594, 0.02254841, -0.03242290, 0.01138569, 0.01476377, 0.00000000, 0.00000000, 0.00000000, 0.00000000
1, 0.0999, 26, 0.79164010, 0.09915046, 0.63221949, -0.50483453, -2.53297830, 0.53245425, 0.00000000, 0.00000000, 0.00000000, -170.25878906, 49.01676559, -152.67118835, -0.41988006, -0.17994973, 0.88927460, 0.02257303, -0.03673875, 0.01181691, 0.01416290, 0.00000000, 0.00000000, 0.00000000, 0.00000000
1, 0.1024, 27, 0.79548258, 0.10059236, 0.63712829, -0.50561059, -2.25426173, 0.53374243, 0.00000000, 0.00000000, 0.00000000, -170.26046753, 49.02253723, -152.67175293, -0.41992155, -0.17994289, 0.88925582, 0.02259658, -0.04051518, 0.01034313, 0.00918222, 0.00000000, 0.00000000, 0.00000000, 0.00000000
1, 0.1049, 28, 0.79548651, 0.09961838, 0.63761038, -0.29453242, -1.97496426, 0.60744071, 0.00000000, 0.00000000, 0.00000000, -170.26197815, 49.02767944, -152.67274475, -0.41995841, -0.17993283, 0.88923997, 0.02261561, -0.04046029, 0.01128882, 0.00863659, 0.00000000, 0.00000000, 0.00000000, 0.00000000
1, 0.1074, 29, 0.79887396, 0.10108299, 0.63910627, -0.29617411, -1.83743250, 0.81737226, 0.00000000, 0.00000000, 0.00000000, -170.26412964, 49.03254700, -152.67463684, -0.41999248, -0.17991878, 0.88922620, 0.02263606, -0.04379201, 0.00978892, 0.00708163, 0.00000000, 0.00000000, 0.00000000, 0.00000000
1, 0.1099, 30, 0.80174112, 0.10300797, 0.64352256, -0.08551376, -1.55874348, 0.96083307, 0.00000000, 0.00000000, 0.00000000, -170.26632690, 49.03678131, -152.67723083, -0.42002192, -0.17990015, 0.88921565, 0.02265264, -0.04661072, 0.00782986, 0.00261438, 0.00000000, 0.00000000, 0.00000000, 0.00000000
1, 0.1124, 31, 0.80319941, 0.10252411, 0.64450592, -0.08754347, -1.28185344, 1.17140865, 0.00000000, 0.00000000, 0.00000000, -170.26924133, 49.04044342, -152.68081665, -0.42004585, -0.17987759, 0.88920844, 0.02267011, -0.04802710, 0.00827266, 0.00158924, 0.00000000, 0.00000000, 0.00000000, 0.00000000
1, 0.1149, 32, 0.80172634, 0.10201938, 0.64595258, -0.01862179, -1.07424605, 1.38254488, 0.00000000, 0.00000000, 0.00000000, -170.27268982, 49.04367065, -152.68531799, -0.42006594, -0.17985040, 0.88920403, 0.02268735, -0.04651714, 0.00873130, 0.00010723, 0.00000000, 0.00000000, 0.00000000, 0.00000000
1, 0.1174, 33, 0.80118752, 0.10295395, 0.65033638, 0.04991187, -0.72728032, 1.59432495, 0.00000000, 0.00000000, 0.00000000, -170.27674866, 49.04613876, -152.69085693, -0.42007947, -0.17981865, 0.88920361, 0.02270385, -0.04595006, 0.00774560, -0.00430083, 0.00000000, 0.00000000, 0.00000000, 0.00000000
1, 0.1199, 34, 0.79920018, 0.10486852, 0.65227830, 0.19020285, -0.58834630, 1.73625910, 0.00000000, 0.00000000, 0.00000000, -170.28091431, 49.04832077, -152.69700623, -0.42009076, -0.17978293, 0.88920516, 0.02271838, -0.04393781, 0.00577916, -0.00626302, 0.00000000, 0.00000000, 0.00000000, 0.00000000
1, 0.1224, 35, 0.79770714, 0.10288272, 0.65712655, 0.18881489, -0.24055967, 1.80763173, 0.00000000, 0.00000000, 0.00000000, -170.28544617, 49.04967117, -152.70364380, -0.42009529, -0.17974602, 0.88921016, 0.02273223, -0.04242928, 0.00771071, -0.01112020, 0.00000000, 0.00000000, 0.00000000, 0.00000000
1, 0.1249, 36, 0.79476994, 0.10139175, 0.65953046, 0.25609484, 0.10457973, 2.22869921, 0.00000000, 0.00000000, 0.00000000, -170.29119873, 49.05036163, -152.71209717, -0.42009318, -0.17970048, 0.88922000, 0.02274727, -0.03948415, 0.00913547, -0.01352179, 0.00000000, 0.00000000, 0.00000000, 0.00000000
1, 0.1274, 37, 0.79180151, 0.10231929, 0.66292059, 0.39641574, 0.38348067, 2.30151486, 0.00000000, 0.00000000, 0.00000000, -170.29692078, 49.05039597, -152.72099304, -0.42008615, -0.17965239, 0.88923270, 0.02275917, -0.03651536, 0.00814326, -0.01690120, 0.00000000, 0.00000000, 0.00000000, 0.00000000
1, 0.1299, 38, 0.78641301, 0.10324711, 0.66434300, 0.25325924, 0.52021909, 2.50968122, 0.00000000, 0.00000000, 0.00000000, -170.30366516, 49.05015564, -152.73075867, -0.42007577, -0.17960164, 0.88924742, 0.02277522, -0.03112961, 0.00713986, -0.01830775, 0.00000000, 0.00000000, 0.00000000, 0.00000000
1, 0.1324, 39, 0.78200328, 0.10222905, 0.66722453, 0.25184143, 0.72803879, 2.65017247, 0.00000000, 0.00000000, 0.00000000, -170.31092834, 49.04947281, -152.74119568, -0.42006132, -0.17954828, 0.88926458, 0.02279177, -0.02672768, 0.00807768, -0.02116645, 0.00000000, 0.00000000, 0.00000000, 0.00000000
1, 0.1349, 40, 0.77615333, 0.10073183, 0.66814381, 0.32015121, 1.00471675, 2.93139315, 0.00000000, 0.00000000, 0.00000000, -170.31892395, 49.04824066, -152.75286865, -0.42004162, -0.17948897, 0.88928545, 0.02280849, -0.02089185, 0.00948732, -0.02205420, 0.00000000, 0.00000000, 0.00000000, 0.00000000
1, 0.1374, 41, 0.77077812, 0.10069297, 0.66907436, 0.31889758, 1.00289035, 3.14068079, 0.00000000, 0.00000000, 0.00000000, -170.32752991, 49.04708099, -152.76531982, -0.42002186, -0.17942561, 0.88930714, 0.02282716, -0.01552981, 0.00943167, -0.02295315, 0.00000000, 0.00000000, 0.00000000, 0.00000000
1, 0.1399, 42, 0.76640713, 0.10117059, 0.66660643, 0.17715895, 0.93180901, 3.20835567, 0.00000000, 0.00000000, 0.00000000, -170.35099792, 49.04087830, -152.78997803, -0.41994277, -0.17932954, 0.88936180, 0.02290548, -0.01122987, 0.00870317, -0.02035952, 0.00000000, 0.00000000, 0.00000000, 0.00000000
1, 0.1424, 43, 0.76202524, 0.09968562, 0.66705054, 0.38859534, 0.93178141, 3.35052872, 0.00000000, 0.00000000, 0.00000000, -170.35998535, 49.03999329, -152.80316162, -0.41992453, -0.17926143, 0.88938361, 0.02292499, -0.00685811, 0.01008870, -0.02077479, 0.00000000, 0.00000000, 0.00000000, 0.00000000
1, 0.1449, 44, 0.75134063, 0.09965906, 0.66209394, 0.03416666, 0.85890132, 3.48531842, 0.00000000, 0.00000000, 0.00000000, -170.37020874, 49.03933334, -152.81681824, -0.41990626, -0.17919393, 0.88940513, 0.02295290, 0.00381899, 0.01000138, -0.01579010, 0.00000000, 0.00000000, 0.00000000, 0.00000000
1, 0.1474, 45, 0.74944586, 0.09334044, 0.66204637, -0.39124328, 0.71533674, 3.68866658, 0.00000000, 0.00000000, 0.00000000, -170.38200378, 49.03910446, -152.83113098, -0.41988900, -0.17912631, 0.88942593, 0.02299148, 0.00571114, 0.01618743, -0.01571709, 0.00000000, 0.00000000, 0.00000000, 0.00000000
1, 0.1499, 46, 0.73809677, 0.08926526, 0.67898047, -0.46064258, 0.22718640, 3.68552971, 0.00000000, 0.00000000, 0.00000000, -170.39373779, 49.04008484, -152.84513855, -0.41988096, -0.17905913, 0.88944221, 0.02303330, 0.01707143, 0.02012819, -0.03264148, 0.00000000, 0.00000000, 0.00000000, 0.00000000
1, 0.1524, 47, 0.73078483, 0.08971471, 0.67794973, -0.38949716, 0.08822490, 3.68576813, 0.00000000, 0.00000000, 0.00000000, -170.40521240, 49.04140472, -152.85905457, -0.41987589, -0.17899121, 0.88945723, 0.02307427, 0.02439857, 0.01954632, -0.03160603, 0.00000000, 0.00000000, 0.00000000, 0.00000000
1, 0.1549, 48, 0.72837549, 0.09167758, 0.67306995, -0.31896362, 0.01833367, 3.75609088, 0.00000000, 0.00000000, 0.00000000, -170.41668701, 49.04292679, -152.87319946, -0.41987240, -0.17892127, 0.88947189, 0.02311480, 0.02682520, 0.01745068, -0.02672423, 0.00000000, 0.00000000, 0.00000000, 0.00000000
1, 0.1574, 49, 0.72261918, 0.08341361, 0.67054617, -0.60141110, -0.19229031, 3.75159454, 0.00000000, 0.00000000, 0.00000000, -170.42875671, 49.04496765, -152.88719177, -0.41987190, -0.17885387, 0.88948447, 0.02316158, 0.03260488, 0.02557408, -0.02420384, 0.00000000, 0.00000000, 0.00000000, 0.00000000
1, 0.1599, 50, 0.71679807, 0.08291595, 0.66757447, -0.81448919, -0.05473093, 3.81935358, 0.00000000, 0.00000000, 0.00000000, -170.44160461, 49.04669189, -152.90151978, -0.41986778, -0.17878717, 0.88949835, 0.02321259, 0.03844560, 0.02592289, -0.02123011, 0.00000000, 0.00000000, 0.00000000, 0.00000000
1, 0.1624, 51, 0.71679807, 0.08291595, 0.66757447, -0.81448919, -0.05473093, 3.81935358, 0.00000000, 0.00000000, 0.00000000, -170.45448303, 49.04840088, -152.91584778, -0.41986373, -0.17872049, 0.88951236, 0.02326359, 0.03846526, 0.02577405, -0.02122802, 0.00000000, 0.00000000, 0.00000000, 0.00000000
1, 0.1649, 52, 0.71543443, 0.08445054, 0.65588236, -0.95042235, -1.30670393, 3.46297908, 0.00000000, 0.00000000, 0.00000000, -170.46606445, 49.05306625, -152.92805481, -0.41988364, -0.17866132, 0.88951343, 0.02331885, 0.03988224, 0.02409852, -0.00957441, 0.00000000, 0.00000000, 0.00000000, 0.00000000
1, 0.1674, 53, 0.71543443, 0.08445054, 0.65588236, -0.95042235, -1.30670393, 3.46297908, 0.00000000, 0.00000000, 0.00000000, -170.47766113, 49.05771255, -152.94026184, -0.41990355, -0.17860214, 0.88951451, 0.02337411, 0.03993542, 0.02395757, -0.00961298, 0.00000000, 0.00000000, 0.00000000, 0.00000000
1, 0.1699, 54, 0.71110320, 0.08153931, 0.65242326, -1.36953413, -3.26009917, 3.44866633, 0.00000000, 0.00000000, 0.00000000, -170.48933411, 49.06717300, -152.95117188, -0.41995972, -0.17854610, 0.88949734, 0.02344498, 0.04437482, 0.02671652, -0.00625491, 0.00000000, 0.00000000, 0.00000000, 0.00000000
1, 0.1724, 55, 0.71110320, 0.08153931, 0.65242326, -1.36953413, -3.26009917, 3.44866633, 0.00000000, 0.00000000, 0.00000000, -170.50100708, 49.07664490, -152.96209717, -0.42001590, -0.17849006, 0.88948017, 0.02351586, 0.04448313, 0.02656425, -0.00635594, 0.00000000, 0.00000000, 0.00000000, 0.00000000
1, 0.1749, 56, 0.71839523, 0.07325778, 0.66266757, -1.50775051, -4.44543648, 3.44142652, 0.00000000, 0.00000000, 0.00000000, -170.51245117, 49.08902740, -152.97224426, -0.42009455, -0.17843480, 0.88945204, 0.02359396, 0.03733265, 0.03468979, -0.01673979, 0.00000000, 0.00000000, 0.00000000, 0.00000000
1, 0.1774, 57, 0.71839523, 0.07325778, 0.66266757, -1.50775051, -4.44543648, 3.44142652, 0.00000000, 0.00000000, 0.00000000, -170.52389526, 49.10140991, -152.98240662, -0.42017320, -0.17837954, 0.88942391, 0.02367207, 0.03747416, 0.03453381, -0.01687926, 0.00000000, 0.00000000, 0.00000000, 0.00000000
1, 0.1799, 58, 0.72620618, 0.07526261, 0.66030556, -1.36214662, -4.85845661, 2.95292211, 0.00000000, 0.00000000, 0.00000000, -170.53340149, 49.11460876, -152.99047852, -0.42026064, -0.17833222, 0.88939017, 0.02374447, 0.02981400, 0.03239322, -0.01467115, 0.00000000, 0.00000000, 0.00000000, 0.00000000
1, 0.1824, 59, 0.72380179, 0.07771794, 0.65445423, -1.50066149, -5.48453522, 2.73897123, 0.00000000, 0.00000000, 0.00000000, -170.54237366, 49.12925720, -152.99737549, -0.42035979, -0.17828998, 0.88934976, 0.02382004, 0.03238571, 0.02980525, -0.00899363, 0.00000000, 0.00000000, 0.00000000, 0.00000000
1, 0.1849, 60, 0.72090465, 0.07967792, 0.64957052, -1.42639685, -5.68891430, 2.25055003, 0.00000000, 0.00000000, 0.00000000, -170.54963684, 49.14420319, -153.00227356, -0.42046347, -0.17825645, 0.88930565, 0.02389049, 0.03545362, 0.02773083, -0.00429100, 0.00000000, 0.00000000, 0.00000000, 0.00000000
1, 0.1874, 61, 0.72488010, 0.07682642, 0.64471757, -1.14050174, -5.96299982, 1.90398026, 0.00000000, 0.00000000, 0.00000000, -170.55509949, 49.15970230, -153.00572205, -0.42057368, -0.17822684, 0.88925767, 0.02395326, 0.03165490, 0.03048738, 0.00037044, 0.00000000, 0.00000000, 0.00000000, 0.00000000
1, 0.1899, 62, 0.72978628, 0.07687702, 0.64183509, -0.92381221, -6.79491568, 1.55395103, 0.00000000, 0.00000000, 0.00000000, -170.57626343, 49.17253494, -153.02177429, -0.42064208, -0.17816089, 0.88923502, 0.02408597, 0.02689529, 0.03017074, 0.00312525, 0.00000000, 0.00000000, 0.00000000, 0.00000000
1, 0.1924, 63, 0.73022306, 0.07781734, 0.64622682, -0.91942447, -7.76798725, 1.27039266, 0.00000000, 0.00000000, 0.00000000, -170.57850647, 49.19221878, -153.02171326, -0.42078856, -0.17814060, 0.88916820, 0.02414566, 0.02668309, 0.02916261, -0.00151873, 0.00000000, 0.00000000, 0.00000000, 0.00000000
1, 0.1949, 64, 0.72672927, 0.09141479, 0.64188480, -1.55777812, -8.12360573, 1.67941391, 0.00000000, 0.00000000, 0.00000000, -170.58334351, 49.21294785, -153.02294922, -0.42093921, -0.17811805, 0.88909930, 0.02422286, 0.03041322, 0.01546588, 0.00256217, 0.00000000, 0.00000000, 0.00000000, 0.00000000
1, 0.1974, 65, 0.73661977, 0.08278301, 0.63607591, -1.76785624, -8.61133194, 1.53498697, 0.00000000, 0.00000000, 0.00000000, -170.58805847, 49.23480225, -153.02334595, -0.42109856, -0.17809997, 0.88902521, 0.02430471, 0.02077186, 0.02399725, 0.00809461, 0.00000000, 0.00000000, 0.00000000, 0.00000000
1, 0.1999, 66, 0.74245638, 0.07889591, 0.64146048, -1.48057318, -9.23320484, 1.11704409, 0.00000000, 0.00000000, 0.00000000, -170.59059143, 49.25803757, -153.02180481, -0.42127129, -0.17808701, 0.88894397, 0.02437957, 0.01520008, 0.02780584, 0.00241190, 0.00000000, 0.00000000, 0.00000000, 0.00000000
1, 0.2024, 67, 0.74967289, 0.08276910, 0.64835697, -1.40823388, -9.65027332, 1.04623187, 0.00000000, 0.00000000, 0.00000000, -170.59251404, 49.28226471, -153.01969910, -0.42145240, -0.17807454, 0.88885856, 0.02445399, 0.00825936, 0.02385850, -0.00479722, 0.00000000, 0.00000000, 0.00000000, 0.00000000
1, 0.2049, 68, 0.75205618, 0.09006824, 0.64743942, -1.61978984, -10.21011448, 1.18053269, 0.00000000, 0.00000000, 0.00000000, -170.59510803, 49.30793381, -153.01777649, -0.42164344, -0.17806107, 0.88876832, 0.02453592, 0.00616825, 0.01647483, -0.00420976, 0.00000000, 0.00000000, 0.00000000, 0.00000000
1, 0.2074, 69, 0.75355244, 0.09010242, 0.64404237, -1.90143132, -10.55948734, 1.10562980, 0.00000000, 0.00000000, 0.00000000, -170.59802246, 49.33441925, -153.01535034, -0.42184019, -0.17805147, 0.88867444, 0.02462398, 0.00497329, 0.01635070, -0.00115335, 0.00000000, 0.00000000, 0.00000000, 0.00000000
1, 0.2099, 70, 0.75650030, 0.08671616, 0.64502293, -1.97257674, -10.42052650, 1.10539126, 0.00000000, 0.00000000, 0.00000000, -170.60116577, 49.36057663, -153.01300049, -0.42203397, -0.17804259, 0.88858175, 0.02471287, 0.00232285, 0.01964505, -0.00246966, 0.00000000, 0.00000000, 0.00000000, 0.00000000
1, 0.2124, 71, 0.76281053, 0.08917196, 0.64606041, -1.68929350, -10.20868397, 0.97036290, 0.00000000, 0.00000000, 0.00000000, -170.60331726, 49.38615036, -153.01026917, -0.42222479, -0.17803384, 0.88849062, 0.02479421, -0.00369674, 0.01710979, -0.00383735, 0.00000000, 0.00000000, 0.00000000, 0.00000000
1, 0.2149, 72, 0.76914001, 0.09213120, 0.64466536, -1.61811829, -10.20767879, 0.90148294, 0.00000000, 0.00000000, 0.00000000, -170.60510254, 49.41169739, -153.00729370, -0.42241588, -0.17802574, 0.88839918, 0.02487352, -0.00973606, 0.01407535, -0.00277299, 0.00000000, 0.00000000, 0.00000000, 0.00000000
1, 0.2174, 73, 0.77305251, 0.09313910, 0.64275396, -1.54780865, -10.34785748, 1.04124629, 0.00000000, 0.00000000, 0.00000000, -170.60704041, 49.43764496, -153.00474548, -0.42260981, -0.17801419, 0.88830692, 0.02495331, -0.01335400, 0.01298960, -0.00119746, 0.00000000, 0.00000000, 0.00000000, 0.00000000
1, 0.2199, 74, 0.77550119, 0.09364957, 0.64131516, -1.40587580, -10.34645557, 0.97324908, 0.00000000, 0.00000000, 0.00000000, -170.60842896, 49.46356583, -153.00195312, -0.42280433, -0.17800266, 0.88821453, 0.02502971, -0.01550859, 0.01240752, -0.00009519, 0.00000000, 0.00000000, 0.00000000, 0.00000000
1, 0.2224, 75, 0.77991027, 0.09368999, 0.63940269, -1.26410758, -10.13540649, 0.83645535, 0.00000000, 0.00000000, 0.00000000, -170.60916138, 49.48890686, -152.99874878, -0.42299536, -0.17799258, 0.88812357, 0.02510128, -0.01963026, 0.01230400, 0.00148702, 0.00000000, 0.00000000, 0.00000000, 0.00000000
1, 0.2249, 76, 0.78326803, 0.09952841, 0.63994664, -1.12414479, -9.57718182, 0.84079683, 0.00000000, 0.00000000, 0.00000000, -170.60981750, 49.51287460, -152.99592590, -0.42317617, -0.17798141, 0.88803786, 0.02516801, -0.02271635, 0.00640626, 0.00063038, 0.00000000, 0.00000000, 0.00000000, 0.00000000
1, 0.2274, 77, 0.78276861, 0.10293631, 0.63801187, -1.26501787, -9.50707817, 0.69982874, 0.00000000, 0.00000000, 0.00000000, -170.61047363, 49.53660202, -152.99261475, -0.42335504, -0.17797431, 0.88795209, 0.02523590, -0.02194810, 0.00293978, 0.00225544, 0.00000000, 0.00000000, 0.00000000, 0.00000000
1, 0.2299, 78, 0.78425121, 0.10344835, 0.63559121, -1.33774519, -8.95065117, 0.77128506, 0.00000000, 0.00000000, 0.00000000, -170.61177063, 49.55900574, -152.98992920, -0.42352283, -0.17796679, 0.88787168, 0.02530369, -0.02317703, 0.00236478, 0.00438511, 0.00000000, 0.00000000, 0.00000000, 0.00000000
1, 0.2324, 79, 0.78615892, 0.10831148, 0.63563144, -1.33935714, -8.67315197, 0.91209817, 0.00000000, 0.00000000, 0.00000000, -170.61360168, 49.58076859, -152.98793030, -0.42368507, -0.17795670, 0.88779426, 0.02537173, -0.02483839, -0.00256605, 0.00406301, 0.00000000, 0.00000000, 0.00000000, 0.00000000
1, 0.2349, 80, 0.78815210, 0.10786702, 0.63174891, -1.41233802, -8.32698059, 1.12211323, 0.00000000, 0.00000000, 0.00000000, -170.61639404, 49.60176086, -152.98696899, -0.42384025, -0.17794341, 0.88772088, 0.02544179, -0.02659411, -0.00219829, 0.00767535, 0.00000000, 0.00000000, 0.00000000, 0.00000000
1, 0.2374, 81, 0.78908753, 0.11077279, 0.63323247, -1.48409545, -8.11894703, 1.19195926, 0.00000000, 0.00000000, 0.00000000, -170.61967468, 49.62226868, -152.98640442, -0.42399108, -0.17792955, 0.88764960, 0.02551307, -0.02729756, -0.00518505, 0.00592882, 0.00000000, 0.00000000, 0.00000000, 0.00000000
1, 0.2399, 82, 0.78956234, 0.11223115, 0.63324374, -1.48506546, -7.77055168, 1.19356942, 0.00000000, 0.00000000, 0.00000000, -170.61909485, 49.64925385, -152.98179626, -0.42419618, -0.17792305, 0.88755089, 0.02558327, -0.02746738, -0.00669553, 0.00556254, 0.00000000, 0.00000000, 0.00000000, 0.00000000
1, 0.2424, 83, 0.78907704, 0.11565001, 0.62984800, -1.27518141, -7.21314716, 1.33831859, 0.00000000, 0.00000000, 0.00000000, -170.62271118, 49.66759109, -152.98236084, -0.42433017, -0.17790492, 0.88748860, 0.02564835, -0.02677489, -0.01019443, 0.00872410, 0.00000000, 0.00000000, 0.00000000, 0.00000000
1, 0.2449, 84, 0.79150844, 0.11810115, 0.62841904, -1.63016224, -6.93702269, 1.40495634, 0.00000000, 0.00000000, 0.00000000, -170.62754822, 49.68528748, -152.98333740, -0.42445740, -0.17788893, 0.88742894, 0.02571984, -0.02900642, -0.01273768, 0.00992984, 0.00000000, 0.00000000, 0.00000000, 0.00000000
1, 0.2474, 85, 0.79153335, 0.12007470, 0.62404597, -1.84462798, -6.45167732, 1.54408789, 0.00000000, 0.00000000, 0.00000000, -170.63354492, 49.70183182, -152.98516846, -0.42457423, -0.17787248, 0.88737404, 0.02579489, -0.02884460, -0.01481399, 0.01409668, 0.00000000, 0.00000000, 0.00000000, 0.00000000
1, 0.2499, 86, 0.79008734, 0.11812542, 0.62402433, -2.19935513, -5.96529722, 1.47216690, 0.00000000, 0.00000000, 0.00000000, -170.64045715, 49.71714783, -152.98703003, -0.42468035, -0.17786099, 0.88732326, 0.02587425, -0.02722567, -0.01297493, 0.01392990, 0.00000000, 0.00000000, 0.00000000, 0.00000000
1, 0.2524, 87, 0.78664851, 0.11710946, 0.62740070, -2.34331751, -5.68980980, 1.75073969, 0.00000000, 0.00000000, 0.00000000, -170.64868164, 49.73188019, -152.99014282, -0.42478043, -0.17784560, 0.88727605, 0.02595792, -0.02362061, -0.01208250, 0.01037485, 0.00000000, 0.00000000, 0.00000000, 0.00000000
1, 0.2549, 88, 0.78563750, 0.12000740, 0.62838149, -2.34551144, -5.20327282, 1.89251912, 0.00000000, 0.00000000, 0.00000000, -170.65756226, 49.74548721, -152.99409485, -0.42487100, -0.17782776, 0.88723385, 0.02604105, -0.02245611, -0.01510870, 0.00923157, 0.00000000, 0.00000000, 0.00000000, 0.00000000
1, 0.2574, 89, 0.78659350, 0.12537186, 0.62549430, -2.27820158, -4.71816730, 2.24446797, 0.00000000, 0.00000000, 0.00000000, -170.66755676, 49.75804138, -152.99971008, -0.42495218, -0.17780274, 0.88719749, 0.02612425, -0.02327055, -0.02061127, 0.01197207, 0.00000000, 0.00000000, 0.00000000, 0.00000000
1, 0.2599, 90, 0.78663939, 0.12394196, 0.62207812, -2.56220102, -4.37135839, 2.24254775, 0.00000000, 0.00000000, 0.00000000, -170.67840576, 49.76972961, -153.00552368, -0.42502558, -0.17778060, 0.88716424, 0.02621159, -0.02318466, -0.01932735, 0.01525438, 0.00000000, 0.00000000, 0.00000000, 0.00000000
1, 0.2624, 91, 0.78375316, 0.12151353, 0.62009430, -2.63312292, -4.16210890, 2.17286921, 0.00000000, 0.00000000, 0.00000000, -170.68933105, 49.78087616, -153.01121521, -0.42509466, -0.17776059, 0.88713259, 0.02629885, -0.02017278, -0.01704453, 0.01711154, 0.00000000, 0.00000000, 0.00000000, 0.00000000
1, 0.2649, 92, 0.77984643, 0.12197576, 0.62006515, -2.77521968, -3.95386505, 2.17207026, 0.00000000, 0.00000000, 0.00000000, -170.70071411, 49.79150391, -153.01704407, -0.42515919, -0.17774202, 0.88710272, 0.02638804, -0.01614631, -0.01765628, 0.01702166, 0.00000000, 0.00000000, 0.00000000, 0.00000000
1, 0.2674, 93, 0.77549773, 0.12100518, 0.61661589, -2.70365644, -4.09221792, 2.10254622, 0.00000000, 0.00000000, 0.00000000, -170.71165466, 49.80244827, -153.02252197, -0.42522666, -0.17772405, 0.88707137, 0.02647574, -0.01167435, -0.01683093, 0.02034682, 0.00000000, 0.00000000, 0.00000000, 0.00000000
1, 0.2699, 94, 0.77207780, 0.12000382, 0.61804432, -2.70449209, -4.09343529, 2.24207091, 0.00000000, 0.00000000, 0.00000000, -170.72300720, 49.81345367, -153.02854919, -0.42529410, -0.17770338, 0.88704056, 0.02656475, -0.00813031, -0.01597944, 0.01879430, 0.00000000, 0.00000000, 0.00000000, 0.00000000
1, 0.2724, 95, 0.76961958, 0.11948604, 0.62045705, -2.56194735, -4.16110373, 2.10398936, 0.00000000, 0.00000000, 0.00000000, -170.73356628, 49.82456207, -153.03398132, -0.42536342, -0.17768401, 0.88700849, 0.02664997, -0.00554711, -0.01560301, 0.01625437, 0.00000000, 0.00000000, 0.00000000, 0.00000000
1, 0.2749, 96, 0.76815766, 0.12143271, 0.61850709, -2.41985083, -4.36934805, 2.10478830, 0.00000000, 0.00000000, 0.00000000, -170.74369812, 49.83618927, -153.03930664, -0.42543742, -0.17766322, 0.88697481, 0.02673328, -0.00395417, -0.01768703, 0.01806969, 0.00000000, 0.00000000, 0.00000000, 0.00000000
1, 0.2774, 97, 0.76720518, 0.12095643, 0.61654878, -2.49041438, -4.43942308, 2.10358357, 0.00000000, 0.00000000, 0.00000000, -170.75395203, 49.84800339, -153.04458618, -0.42551240, -0.17764302, 0.88694018, 0.02681820, -0.00286889, -0.01735010, 0.01989115, 0.00000000, 0.00000000, 0.00000000, 0.00000000
1, 0.2799, 98, 0.76573998, 0.11850373, 0.61895967, -2.56011176, -4.36831427, 1.89373600, 0.00000000, 0.00000000, 0.00000000, -170.76382446, 49.85953522, -153.04911804, -0.42558590, -0.17762758, 0.88690549, 0.02690224, -0.00127387, -0.01503164, 0.01734614, 0.00000000, 0.00000000, 0.00000000, 0.00000000
1, 0.2824, 99, 0.76331359, 0.11654507, 0.61941713, -2.27650023, -4.57576466, 1.89630008, 0.00000000, 0.00000000, 0.00000000, -170.77288818, 49.87158203, -153.05352783, -0.42566451, -0.17760934, 0.88686907, 0.02698163, 0.00128806, -0.01319945, 0.01674641, 0.00000000, 0.00000000, 0.00000000, 0.00000000
1, 0.2849, 100, 0.76281756, 0.11800135, 0.61893350, -2.13259745, -5.13118649, 1.75596368, 0.00000000, 0.00000000, 0.00000000, -170.78091431, 49.88494873, -153.05706787, -0.42575449, -0.17759214, 0.88682699, 0.02705908, 0.00193447, -0.01477350, 0.01706839, 0.00000000, 0.00000000, 0.00000000, 0.00000000
1, 0.2874, 101, 0.76085627, 0.11700494, 0.62086082, -1.91929591, -5.19845772, 1.61876464, 0.00000000, 0.00000000, 0.00000000, -170.78799438, 49.89842606, -153.06004333, -0.42584667, -0.17757557, 0.88678384, 0.02713140, 0.00404722, -0.01388439, 0.01497627, 0.00000000, 0.00000000, 0.00000000, 0.00000000
1, 0.2899, 102, 0.75790161, 0.11745463, 0.62327451, -1.77572143, -5.33458805, 1.34083581, 0.00000000, 0.00000000, 0.00000000, -170.78253174, 49.91347122, -153.05274963, -0.42596775, -0.17758948, 0.88672245, 0.02714816, 0.00717110, -0.01430562, 0.01235456, 0.00000000, 0.00000000, 0.00000000, 0.00000000
1, 0.2924, 103, 0.75834423, 0.11986506, 0.62572557, -1.70335233, -5.61169004, 1.20090520, 0.00000000, 0.00000000, 0.00000000, -170.78764343, 49.92779922, -153.05386353, -0.42606896, -0.17757873, 0.88667381, 0.02721401, 0.00688940, -0.01680338, 0.00972372, 0.00000000, 0.00000000, 0.00000000, 0.00000000
1, 0.2949, 104, 0.75833303, 0.11741365, 0.62912226, -1.49010992, -5.95889521, 1.20194268, 0.00000000, 0.00000000, 0.00000000, -170.79205322, 49.94298553, -153.05476379, -0.42617774, -0.17756581, 0.88662219, 0.02727710, 0.00707120, -0.01443342, 0.00613475, 0.00000000, 0.00000000, 0.00000000, 0.00000000
1, 0.2974, 105, 0.75880170, 0.11691309, 0.63155866, -1.34775949, -5.95688438, 1.06418288, 0.00000000, 0.00000000, 0.00000000, -170.79571533, 49.95810318, -153.05514526, -0.42628711, -0.17755422, 0.88657016, 0.02733614, 0.00677234, -0.01400575, 0.00350541, 0.00000000, 0.00000000, 0.00000000, 0.00000000
1, 0.2999, 106, 0.76172704, 0.11497501, 0.63352048, -1.06289423, -6.16250896, 0.85745966, 0.00000000, 0.00000000, 0.00000000, -170.79795837, 49.97367477, -153.05461121, -0.42640170, -0.17754383, 0.88651550, 0.02738854, 0.00402176, -0.01212575, 0.00134248, 0.00000000, 0.00000000, 0.00000000, 0.00000000
1, 0.3024, 107, 0.76072687, 0.11348455, 0.63740116, -1.13178599, -6.23014927, 0.57720512, 0.00000000, 0.00000000, 0.00000000, -170.79953003, 49.98926163, -153.05294800, -0.42651746, -0.17753948, 0.88645911, 0.02743993, 0.00519693, -0.01068594, -0.00274128, 0.00000000, 0.00000000, 0.00000000, 0.00000000
1, 0.3049, 108, 0.75778055, 0.11247508, 0.64029443, -0.98904747, -6.36749697, 0.43880120, 0.00000000, 0.00000000, 0.00000000, -170.80024719, 50.00515366, -153.05067444, -0.42663649, -0.17753640, 0.88640094, 0.02748780, 0.00832153, -0.00971852, -0.00584298, 0.00000000, 0.00000000, 0.00000000, 0.00000000
1, 0.3074, 109, 0.76014620, 0.11487506, 0.64568323, -1.05858099, -6.50603390, 0.29774964, 0.00000000, 0.00000000, 0.00000000, -170.80067444, 50.02133179, -153.04776001, -0.42675802, -0.17753659, 0.88634086, 0.02753625, 0.00613731, -0.01215773, -0.01144451, 0.00000000, 0.00000000, 0.00000000, 0.00000000
1, 0.3099, 110, 0.75960815, 0.11678728, 0.64909798, -0.84586120, -6.36426830, 0.16151650, 0.00000000, 0.00000000, 0.00000000, -170.80021667, 50.03709793, -153.04443359, -0.42687771, -0.17753752, 0.88628167, 0.02757876, 0.00685215, -0.01409876, -0.01506841, 0.00000000, 0.00000000, 0.00000000, 0.00000000
1, 0.3124, 111, 0.76058334, 0.11630420, 0.64959043, -0.70370460, -6.29257822, 0.02407873, 0.00000000, 0.00000000, 0.00000000, -170.79904175, 50.05264282, -153.04060364, -0.42699668, -0.17753983, 0.88622272, 0.02761696, 0.00605118, -0.01363593, -0.01576823, 0.00000000, 0.00000000, 0.00000000, 0.00000000
1, 0.3149, 112, 0.76352209, 0.11339945, 0.65106040, -0.77282035, -6.43050718, -0.18673532, 0.00000000, 0.00000000, 0.00000000, -170.79734802, 50.06845093, -153.03587341, -0.42711815, -0.17754675, 0.88616163, 0.02765507, 0.00328952, -0.01074629, -0.01744980, 0.00000000, 0.00000000, 0.00000000, 0.00000000
1, 0.3174, 113, 0.76452988, 0.11245312, 0.64862841, -0.91369349, -6.36040306, -0.32770333, 0.00000000, 0.00000000, 0.00000000, -170.79563904, 50.08401108, -153.03065491, -0.42723778, -0.17755775, 0.88610053, 0.02769432, 0.00245607, -0.00981425, -0.01522666, 0.00000000, 0.00000000, 0.00000000, 0.00000000
1, 0.3199, 114, 0.76650137, 0.10808349, 0.65057015, -1.12477148, -6.63970137, -0.40140170, 0.00000000, 0.00000000, 0.00000000, -170.79408264, 50.10022736, -153.02497864, -0.42736202, -0.17757200, 0.88603646, 0.02773804, 0.00066614, -0.00546227, -0.01738549, 0.00000000, 0.00000000, 0.00000000, 0.00000000
1, 0.3224, 115, 0.77229565, 0.11051450, 0.65452558, -1.33765566, -6.57182026, -0.33396488, 0.00000000, 0.00000000, 0.00000000, -170.79330444, 50.11632538, -153.01957703, -0.42748410, -0.17758694, 0.88597304, 0.02778624, -0.00494796, -0.00791905, -0.02155495, 0.00000000, 0.00000000, 0.00000000, 0.00000000
1, 0.3249, 116, 0.77128929, 0.11341611, 0.65501934, -1.62087929, -6.50372791, -0.33717310, 0.00000000, 0.00000000, 0.00000000, -170.79324341, 50.13224030, -153.01423645, -0.42760372, -0.17760462, 0.88591009, 0.02783963, -0.00376350, -0.01085413, -0.02225924, 0.00000000, 0.00000000, 0.00000000, 0.00000000
1, 0.3274, 117, 0.76932728, 0.11144204, 0.65791571, -1.26745045, -6.22241974, -0.40123457, 0.00000000, 0.00000000, 0.00000000, -170.79225159, 50.14743423, -153.00881958, -0.42771930, -0.17762040, 0.88584971, 0.02788449, -0.00163156, -0.00890164, -0.02535833, 0.00000000, 0.00000000, 0.00000000, 0.00000000
1, 0.3299, 118, 0.76987225, 0.10611539, 0.65691876, -0.84345835, -5.87103510, -0.46409142, 0.00000000, 0.00000000, 0.00000000, -170.79016113, 50.16173172, -153.00337219, -0.42782974, -0.17763366, 0.88579261, 0.02791921, -0.00201660, -0.00358272, -0.02455432, 0.00000000, 0.00000000, 0.00000000, 0.00000000
1, 0.3324, 119, 0.77137214, 0.10468677, 0.65448838, -1.12587583, -5.94169188, -0.53770626, 0.00000000, 0.00000000, 0.00000000, -170.78854370, 50.17618179, -152.99757385, -0.42794055, -0.17765093, 0.88573438, 0.02795898, -0.00335497, -0.00216716, -0.02231801, 0.00000000, 0.00000000, 0.00000000, 0.00000000
1, 0.3349, 120, 0.76557642, 0.10030048, 0.65247107, -1.40957713, -6.15414238, -0.33291519, 0.00000000, 0.00000000, 0.00000000, -170.78813171, 50.19123077, -152.99243164, -0.42805421, -0.17766677, 0.88567477, 0.02800696, 0.00260896, 0.00219142, -0.02050060, 0.00000000, 0.00000000, 0.00000000, 0.00000000
1, 0.3374, 121, 0.76701492, 0.09833554, 0.65685600, -1.48058820, -6.36479425, -0.19523896, 0.00000000, 0.00000000, 0.00000000, -170.78820801, 50.20685959, -152.98771667, -0.42817158, -0.17768048, 0.88561368, 0.02805841, 0.00134504, 0.00412207, -0.02509225, 0.00000000, 0.00000000, 0.00000000, 0.00000000
1, 0.3399, 122, 0.76652020, 0.10174710, 0.65443426, -1.62255085, -6.50616312, -0.05812326, 0.00000000, 0.00000000, 0.00000000, -170.79203796, 50.21440887, -152.98707581, -0.42822281, -0.17768866, 0.88558573, 0.02810660, 0.00192410, 0.00065195, -0.02276379, 0.00000000, 0.00000000, 0.00000000, 0.00000000
1, 0.3424, 123, 0.76502424, 0.10220174, 0.65734679, -1.40899503, -6.36317968, -0.33388132, 0.00000000, 0.00000000, 0.00000000, -170.79150391, 50.22998047, -152.98179626, -0.42834049, -0.17770436, 0.88552415, 0.02815537, 0.00359404, 0.00016968, -0.02588332, 0.00000000, 0.00000000, 0.00000000, 0.00000000
1, 0.3449, 124, 0.76308787, 0.10317887, 0.65490091, -0.91227567, -6.56822252, -0.46819445, 0.00000000, 0.00000000, 0.00000000, -170.78924561, 50.24600983, -152.97587585, -0.42846408, -0.17771788, 0.88546032, 0.02819408, 0.00570923, -0.00081687, -0.02365363, 0.00000000, 0.00000000, 0.00000000, 0.00000000
1, 0.3474, 125, 0.76022512, 0.10076872, 0.65048218, -0.98289859, -6.91823244, -0.33116227, 0.00000000, 0.00000000, 0.00000000, -170.78739929, 50.26294708, -152.97027588, -0.42859411, -0.17772920, 0.88539374, 0.02823679, 0.00876099, 0.00157732, -0.01946270, 0.00000000, 0.00000000, 0.00000000, 0.00000000
1, 0.3499, 126, 0.75980920, 0.09642494, 0.64704740, -1.33652139, -7.12986231, -0.26677880, 0.00000000, 0.00000000, 0.00000000, -170.78651428, 50.28043365, -152.96478271, -0.42872682, -0.17774247, 0.88532519, 0.02828776, 0.00937200, 0.00589326, -0.01626122, 0.00000000, 0.00000000, 0.00000000, 0.00000000
1, 0.3524, 127, 0.75883329, 0.09593038, 0.64752400, -1.40586090, -7.33807850, -0.40815243, 0.00000000, 0.00000000, 0.00000000, -170.78527832, 50.29838943, -152.95860291, -0.42886335, -0.17775896, 0.88525409, 0.02833955, 0.01054800, 0.00636282, -0.01697785, 0.00000000, 0.00000000, 0.00000000, 0.00000000
1, 0.3549, 128, 0.75733441, 0.09882546, 0.64850080, -1.47545409, -7.75654936, -0.41096726, 0.00000000, 0.00000000, 0.00000000, -170.78399658, 50.31736374, -152.95214844, -0.42900771, -0.17777590, 0.88517904, 0.02839428, 0.01225853, 0.00344096, -0.01820838, 0.00000000, 0.00000000, 0.00000000, 0.00000000
1, 0.3574, 129, 0.75489038, 0.09831865, 0.64945263, -1.04871595, -8.24070644, -0.54745120, 0.00000000, 0.00000000, 0.00000000, -170.78102112, 50.33747864, -152.94487000, -0.42916313, -0.17779119, 0.88509911, 0.02844137, 0.01492667, 0.00393733, -0.01943237, 0.00000000, 0.00000000, 0.00000000, 0.00000000
1, 0.3599, 130, 0.75050491, 0.09829649, 0.64893013, -0.69392914, -8.44715118, -0.61376691, 0.00000000, 0.00000000, 0.00000000, -170.77684021, 50.35807419, -152.93719482, -0.42932394, -0.17780429, 0.88501722, 0.02848179, 0.01954151, 0.00396104, -0.01919067, 0.00000000, 0.00000000, 0.00000000, 0.00000000
1, 0.3624, 131, 0.75201958, 0.09785646, 0.64406967, -0.83350384, -9.14473438, -0.61875248, 0.00000000, 0.00000000, 0.00000000, -170.77264404, 50.38039017, -152.92904663, -0.42949769, -0.17781837, 0.88492864, 0.02852756, 0.01827526, 0.00439897, -0.01463390, 0.00000000, 0.00000000, 0.00000000, 0.00000000
1, 0.3649, 132, 0.75055552, 0.09687021, 0.64502692, -0.83214569, -9.63248825, -0.62100685, 0.00000000, 0.00000000, 0.00000000, -170.76820374, 50.40392303, -152.92057800, -0.42968082, -0.17783217, 0.88483542, 0.02857517, 0.02000118, 0.00538327, -0.01591117, 0.00000000, 0.00000000, 0.00000000, 0.00000000
1, 0.3674, 133, 0.75347364, 0.09785776, 0.64505547, -0.90151519, -9.98067188, -0.69326210, 0.00000000, 0.00000000, 0.00000000, -170.76354980, 50.42827606, -152.91162109, -0.42987040, -0.17784776, 0.88473850, 0.02862480, 0.01735389, 0.00439429, -0.01627141, 0.00000000, 0.00000000, 0.00000000, 0.00000000
1, 0.3699, 134, 0.75196749, 0.10367845, 0.64409900, -0.89990336, -10.25817108, -0.83407521, 0.00000000, 0.00000000, 0.00000000, -170.75833130, 50.45324707, -152.90193176, -0.43006542, -0.17786588, 0.88463855, 0.02867415, 0.01913762, -0.00142305, -0.01565582, 0.00000000, 0.00000000, 0.00000000, 0.00000000
1, 0.3724, 135, 0.74902195, 0.10364663, 0.64602327, -0.54392248, -10.74272346, -0.97144157, 0.00000000, 0.00000000, 0.00000000, -170.75155640, 50.47935867, -152.89138794, -0.43027124, -0.17788300, 0.88453364, 0.02871722, 0.02237326, -0.00137347, -0.01793933, 0.00000000, 0.00000000, 0.00000000, 0.00000000
1, 0.3749, 136, 0.74953461, 0.10562304, 0.64165413, -0.33006835, -11.15900040, -1.04048872, 0.00000000, 0.00000000, 0.00000000, -170.74382019, 50.50648117, -152.88029480, -0.43048590, -0.17789917, 0.88442457, 0.02875712, 0.02216172, -0.00332387, -0.01394427, 0.00000000, 0.00000000, 0.00000000, 0.00000000
1, 0.3774, 137, 0.74612147, 0.10755825, 0.63968837, -0.25753498, -11.64574814, -1.11162293, 0.00000000, 0.00000000, 0.00000000, -170.73544312, 50.53477097, -152.86862183, -0.43071029, -0.17791572, 0.88431072, 0.02879685, 0.02588880, -0.00522871, -0.01236957, 0.00000000, 0.00000000, 0.00000000, 0.00000000
1, 0.3799, 138, 0.74612147, 0.10755825, 0.63968837, -0.25753498, -11.64574814, -1.11162293, 0.00000000, 0.00000000, 0.00000000, -170.72706604, 50.56304550, -152.85693359, -0.43093464, -0.17793226, 0.88419682, 0.02883658, 0.02620239, -0.00519834, -0.01276070, 0.00000000, 0.00000000, 0.00000000, 0.00000000
1, 0.3824, 139, 0.74948549, 0.10900458, 0.64361918, -0.39675140, -12.62265778, -1.04813421, 0.00000000, 0.00000000, 0.00000000, -170.71871948, 50.59376526, -152.84483337, -0.43117723, -0.17794827, 0.88407385, 0.02888338, 0.02317894, -0.00662018, -0.01711518, 0.00000000, 0.00000000, 0.00000000, 0.00000000
1, 0.3849, 140, 0.74948549, 0.10900458, 0.64361918, -0.39675140, -12.62265778, -1.04813421, 0.00000000, 0.00000000, 0.00000000, -170.71035767, 50.62447739, -152.83274841, -0.43141973, -0.17796424, 0.88395071, 0.02893017, 0.02351898, -0.00659571, -0.01753908, 0.00000000, 0.00000000, 0.00000000, 0.00000000
1, 0.3874, 141, 0.75187492, 0.11191165, 0.64608848, -0.60502380, -13.45756149, -1.33369637, 0.00000000, 0.00000000, 0.00000000, -170.70123291, 50.65714264, -152.81898499, -0.43167773, -0.17798716, 0.88381851, 0.02898153, 0.02149111, -0.00947432, -0.02045972, 0.00000000, 0.00000000, 0.00000000, 0.00000000
1, 0.3899, 142, 0.75187492, 0.11191165, 0.64608848, -0.60502380, -13.45756149, -1.33369637, 0.00000000, 0.00000000, 0.00000000, -170.68974304, 50.68194199, -152.80442810, -0.43187955, -0.17801894, 0.88371277, 0.02900069, 0.02176541, -0.00940271, -0.02081048, 0.00000000, 0.00000000, 0.00000000, 0.00000000
1, 0.3924, 143, 0.75235802, 0.11191086, 0.64657938, -0.88766539, -13.59850597, -1.33787072, 0.00000000, 0.00000000, 0.00000000, -170.68119812, 50.71494675, -152.79054260, -0.43213910, -0.17804450, 0.88357890, 0.02905801, 0.02164722, -0.00938098, -0.02175647, 0.00000000, 0.00000000, 0.00000000, 0.00000000
1, 0.3949, 144, 0.75235802, 0.11191086, 0.64657938, -0.88766539, -13.59850597, -1.33787072, 0.00000000, 0.00000000, 0.00000000, -170.67265320, 50.74794006, -152.77661133, -0.43239862, -0.17807004, 0.88344496, 0.02911533, 0.02201176, -0.00935997, -0.02221179, 0.00000000, 0.00000000, 0.00000000, 0.00000000
1, 0.3974, 145, 0.75620186, 0.11530805, 0.64955002, -1.02953815, -13.31997490, -1.40811014, 0.00000000, 0.00000000, 0.00000000, -170.66435242, 50.78023148, -152.76258850, -0.43265218, -0.17809841, 0.88331306, 0.02917363, 0.01852429, -0.01273762, -0.02562803, 0.00000000, 0.00000000, 0.00000000, 0.00000000
1, 0.3999, 146, 0.75864553, 0.11532605, 0.64908278, -1.10084772, -12.97136688, -1.47714496, 0.00000000, 0.00000000, 0.00000000, -170.65618896, 50.81163025, -152.74850464, -0.43289882, -0.17812900, 0.88318419, 0.02923130, 0.01642704, -0.01273565, -0.02559442, 0.00000000, 0.00000000, 0.00000000, 0.00000000
1, 0.4024, 147, 0.76108962, 0.11583286, 0.64813095, -1.24297452, -12.90308952, -1.40882552, 0.00000000, 0.00000000, 0.00000000, -170.64859009, 50.84288025, -152.73471069, -0.43314344, -0.17815965, 0.88305598, 0.02929208, 0.01432747, -0.01322858, -0.02507347, 0.00000000, 0.00000000, 0.00000000, 0.00000000
1, 0.4049, 148, 0.76156366, 0.11631358, 0.64911133, -1.52655625, -12.55567265, -1.48050809, 0.00000000, 0.00000000, 0.00000000, -170.64164734, 50.87325287, -152.72082520, -0.43338034, -0.17819458, 0.88293064, 0.02935630, 0.01418805, -0.01370071, -0.02647186, 0.00000000, 0.00000000, 0.00000000, 0.00000000
1, 0.4074, 149, 0.76304513, 0.11535916, 0.64814430, -1.59792566, -12.48699951, -1.41130614, 0.00000000, 0.00000000, 0.00000000, -170.63511658, 50.90347672, -152.70726013, -0.43361551, -0.17822886, 0.88280594, 0.02942228, 0.01303935, -0.01274191, -0.02592057, 0.00000000, 0.00000000, 0.00000000, 0.00000000
1, 0.4099, 150, 0.76353258, 0.11487321, 0.64863276, -1.88214910, -12.21047688, -1.34378576, 0.00000000, 0.00000000, 0.00000000, -170.62963867, 50.93304825, -152.69412231, -0.43384421, -0.17826471, 0.88268399, 0.02949330, 0.01287729, -0.01226150, -0.02681404, 0.00000000, 0.00000000, 0.00000000, 0.00000000
1, 0.4124, 151, 0.76452696, 0.11489356, 0.64669269, -2.02402163, -11.93194580, -1.41402519, 0.00000000, 0.00000000, 0.00000000, -170.62440491, 50.96191406, -152.68089294, -0.43406704, -0.17830342, 0.88256425, 0.02956530, 0.01220030, -0.01228883, -0.02526928, 0.00000000, 0.00000000, 0.00000000, 0.00000000
1, 0.4424, 152, 0.77694464, 0.10487910, 0.63310450, -2.74325156, -10.76354504, -0.02212669, 0.00000000, 0.00000000, 0.00000000, -170.61380005, 51.27565384, -152.56407166, -0.43642190, -0.17868720, 0.88128906, 0.03060371, 0.00321996, -0.00285452, -0.01590568, 0.00000000, 0.00000000, 0.00000000, 0.00000000
1, 0.4449, 153, 0.78631371, 0.10159224, 0.62585753, -2.88843775, -10.34991455, 0.39661527, 0.00000000, 0.00000000, 0.00000000, -170.61697388, 51.30134583, -152.55889893, -0.43660930, -0.17870015, 0.88119006, 0.03070336, -0.00586879, 0.00034104, -0.00899827, 0.00000000, 0.00000000, 0.00000000, 0.00000000
1, 0.4474, 154, 0.78388375, 0.10109638, 0.62534839, -3.02978849, -10.56035423, 0.46364656, 0.00000000, 0.00000000, 0.00000000, -170.62060547, 51.32758331, -152.55384827, -0.43680021, -0.17871302, 0.88108927, 0.03080720, -0.00315261, 0.00073960, -0.00883532, 0.00000000, 0.00000000, 0.00000000, 0.00000000
1, 0.4499, 155, 0.77905387, 0.09621970, 0.62479752, -3.31342983, -10.49287224, 0.53020072, 0.00000000, 0.00000000, 0.00000000, -170.62518311, 51.35367966, -152.54908752, -0.43698859, -0.17872734, 0.88098902, 0.03091685, 0.00196177, 0.00550912, -0.00862736, 0.00000000, 0.00000000, 0.00000000, 0.00000000
1, 0.4524, 156, 0.77615637, 0.09133987, 0.62621039, -3.38538122, -10.21516037, 0.60036886, 0.00000000, 0.00000000, 0.00000000, -170.63029480, 51.37912369, -152.54479980, -0.43717131, -0.17874120, 0.88089168, 0.03102747, 0.00513655, 0.01027749, -0.01037329, 0.00000000, 0.00000000, 0.00000000, 0.00000000
1, 0.4549, 157, 0.77759373, 0.09425947, 0.62623692, -3.17455697, -10.14611626, 0.81262600, 0.00000000, 0.00000000, 0.00000000, -170.63555908, 51.40447998, -152.54139709, -0.43735340, -0.17874900, 0.88079596, 0.03113580, 0.00397533, 0.00724492, -0.01073164, 0.00000000, 0.00000000, 0.00000000, 0.00000000
1, 0.4574, 158, 0.78151411, 0.09967040, 0.61947751, -2.82096386, -10.07445526, 0.81736088, 0.00000000, 0.00000000, 0.00000000, -170.64001465, 51.42967606, -152.53807068, -0.43753538, -0.17875335, 0.88070101, 0.03123709, 0.00032920, 0.00173038, -0.00430334, 0.00000000, 0.00000000, 0.00000000, 0.00000000
1, 0.4599, 159, 0.78693998, 0.09828299, 0.61464375, -2.75120616, -9.86562920, 0.88897204, 0.00000000, 0.00000000, 0.00000000, -170.64460754, 51.45436478, -152.53514099, -0.43771362, -0.17875580, 0.88060844, 0.03133691, -0.00482810, 0.00301363, 0.00020587, 0.00000000, 0.00000000, 0.00000000, 0.00000000
1, 0.4624, 160, 0.78456932, 0.09539054, 0.61022651, -2.89478064, -9.72949982, 1.16690087, 0.00000000, 0.00000000, 0.00000000, -170.65049744, 51.47882843, -152.53341675, -0.43788838, -0.17875437, 0.88051802, 0.03144160, -0.00219142, 0.00578860, 0.00430381, 0.00000000, 0.00000000, 0.00000000, 0.00000000
1, 0.4649, 161, 0.78361362, 0.09051488, 0.61262912, -3.24917936, -9.66241264, 1.23257256, 0.00000000, 0.00000000, 0.00000000, -170.65751648, 51.50317001, -152.53199768, -0.43806049, -0.17875510, 0.88042831, 0.03155348, -0.00097120, 0.01053508, 0.00158566, 0.00000000, 0.00000000, 0.00000000, 0.00000000
1, 0.4674, 162, 0.77967328, 0.08997387, 0.61697793, -3.24876142, -9.66180420, 1.16281009, 0.00000000, 0.00000000, 0.00000000, -170.66430664, 51.52747726, -152.53031921, -0.43823260, -0.17875718, 0.88033825, 0.03166467, 0.00323313, 0.01094932, -0.00307888, 0.00000000, 0.00000000, 0.00000000, 0.00000000
1, 0.4699, 163, 0.78006673, 0.09576584, 0.62139410, -3.10799289, -9.24232769, 1.09674501, 0.00000000, 0.00000000, 0.00000000, -170.67076111, 51.55072403, -152.52864075, -0.43839723, -0.17875944, 0.88025200, 0.03177090, 0.00309205, 0.00503665, -0.00779712, 0.00000000, 0.00000000, 0.00000000, 0.00000000
1, 0.4724, 164, 0.78744441, 0.09536755, 0.61560702, -3.10990310, -8.40556908, 1.03084707, 0.00000000, 0.00000000, 0.00000000, -170.67745972, 51.57187271, -152.52725220, -0.43854579, -0.17876355, 0.88017350, 0.03187326, -0.00405616, 0.00531645, -0.00228357, 0.00000000, 0.00000000, 0.00000000, 0.00000000
1, 0.4749, 165, 0.78566819, 0.09060673, 0.60193121, -2.83045554, -7.56966019, 1.24752939, 0.00000000, 0.00000000, 0.00000000, -170.68453979, 51.59104919, -152.52726746, -0.43867925, -0.17876141, 0.88010401, 0.03196907, -0.00207198, 0.00995887, 0.01114583, 0.00000000, 0.00000000, 0.00000000, 0.00000000
1, 0.4774, 166, 0.78915364, 0.08481944, 0.59998161, -2.75992227, -7.63955164, 1.31785238, 0.00000000, 0.00000000, 0.00000000, -170.69165039, 51.61043549, -152.52752686, -0.43881419, -0.17875718, 0.88003403, 0.03206447, -0.00534725, 0.01562729, 0.01284641, 0.00000000, 0.00000000, 0.00000000, 0.00000000
1, 0.4799, 167, 0.78713268, 0.08573079, 0.60630149, -2.90163088, -7.57066536, 1.31640935, 0.00000000, 0.00000000, 0.00000000, -170.69914246, 51.62963104, -152.52783203, -0.43894729, -0.17875439, 0.87996465, 0.03216230, -0.00311828, 0.01459332, 0.00628018, 0.00000000, 0.00000000, 0.00000000, 0.00000000
1, 0.4824, 168, 0.78415668, 0.08909513, 0.60824287, -2.76069832, -7.36083508, 1.31914055, 0.00000000, 0.00000000, 0.00000000, -170.70640564, 51.64832306, -152.52830505, -0.43907693, -0.17875034, 0.87989742, 0.03225664, 0.00006020, 0.01111006, 0.00409907, 0.00000000, 0.00000000, 0.00000000, 0.00000000
1, 0.4849, 169, 0.78660214, 0.09155722, 0.60535294, -2.61864614, -6.79956532, 0.97466975, 0.00000000, 0.00000000, 0.00000000, -170.71252441, 51.66549301, -152.52775574, -0.43919656, -0.17875192, 0.87983423, 0.03234277, -0.00219923, 0.00854468, 0.00676781, 0.00000000, 0.00000000, 0.00000000, 0.00000000
1, 0.4874, 170, 0.78816104, 0.08724318, 0.59949893, -2.47871351, -6.38130617, 1.04812944, 0.00000000, 0.00000000, 0.00000000, -170.71873474, 51.68166351, -152.52777100, -0.43930858, -0.17875104, 0.87977535, 0.03242527, -0.00358325, 0.01275663, 0.01241422, 0.00000000, 0.00000000, 0.00000000, 0.00000000
1, 0.4899, 171, 0.79258990, 0.08241369, 0.59999698, -2.47890759, -6.31162691, 1.04845154, 0.00000000, 0.00000000, 0.00000000, -170.73507690, 51.70423508, -152.53506470, -0.43945509, -0.17872345, 0.87970239, 0.03257143, -0.00776792, 0.01736183, 0.01163971, 0.00000000, 0.00000000, 0.00000000, 0.00000000
1, 0.4924, 172, 0.78815967, 0.07893690, 0.60724914, -2.69176173, -6.10377979, 1.04676998, 0.00000000, 0.00000000, 0.00000000, -170.74195862, 51.71971512, -152.53526306, -0.43956101, -0.17872484, 0.87964606, 0.03265693, -0.00317025, 0.02073097, 0.00419027, 0.00000000, 0.00000000, 0.00000000, 0.00000000
1, 0.4949, 173, 0.78515363, 0.08618622, 0.60872304, -2.90555596, -5.40756989, 0.97758037, 0.00000000, 0.00000000, 0.00000000, -170.74952698, 51.73344421, -152.53564453, -0.43965277, -0.17873009, 0.87959594, 0.03274315, -0.00001580, 0.01337065, 0.00254375, 0.00000000, 0.00000000, 0.00000000, 0.00000000
1, 0.4974, 174, 0.78765297, 0.08527043, 0.60338110, -3.18830228, -5.05893421, 0.76637286, 0.00000000, 0.00000000, 0.00000000, -170.75732422, 51.74624252, -152.53543091, -0.43973687, -0.17874233, 0.87954813, 0.03283141, -0.00237679, 0.01417515, 0.00772607, 0.00000000, 0.00000000, 0.00000000, 0.00000000
1, 0.4999, 175, 0.78726250, 0.07703800, 0.60090071, -3.33033919, -4.57075644, 0.62733710, 0.00000000, 0.00000000, 0.00000000, -170.76528931, 51.75776291, -152.53495789, -0.43981114, -0.17875896, 0.87950432, 0.03291916, -0.00186187, 0.02229727, 0.01006437, 0.00000000, 0.00000000, 0.00000000, 0.00000000
1, 0.5024, 176, 0.78828800, 0.07463983, 0.59797442, -3.26052189, -4.08199739, 0.56071150, 0.00000000, 0.00000000, 0.00000000, -170.77311707, 51.76805878, -152.53456116, -0.43987632, -0.17877656, 0.87946504, 0.03300302, -0.00277603, 0.02458932, 0.01286489, 0.00000000, 0.00000000, 0.00000000, 0.00000000
1, 0.5049, 177, 0.79027063, 0.07272160, 0.59651953, -3.18973494, -3.94163394, 0.49247575, 0.00000000, 0.00000000, 0.00000000, -170.78063965, 51.77799606, -152.53396606, -0.43993911, -0.17879488, 0.87942672, 0.03308431, -0.00465149, 0.02640566, 0.01419848, 0.00000000, 0.00000000, 0.00000000, 0.00000000
1, 0.5074, 178, 0.79125929, 0.07127184, 0.59652007, -2.76477242, -3.93864489, 0.42800859, 0.00000000, 0.00000000, 0.00000000, -170.78688049, 51.78787994, -152.53312683, -0.44000360, -0.17881036, 0.87938863, 0.03315683, -0.00553340, 0.02776708, 0.01407492, 0.00000000, 0.00000000, 0.00000000, 0.00000000
1, 0.5099, 179, 0.79517394, 0.06886166, 0.59751338, -2.69214940, -4.00549221, 0.14951926, 0.00000000, 0.00000000, 0.00000000, -170.79203796, 51.79782104, -152.53112793, -0.44006985, -0.17883044, 0.87934881, 0.03322554, -0.00934076, 0.03010043, 0.01295578, 0.00000000, 0.00000000, 0.00000000, 0.00000000
1, 0.5124, 180, 0.79567945, 0.06741268, 0.59702301, -2.54957485, -3.93319345, -0.05768096, 0.00000000, 0.00000000, 0.00000000, -170.79623413, 51.80750275, -152.52835083, -0.44013539, -0.17885318, 0.87930900, 0.03328924, -0.00974179, 0.03148349, 0.01332236, 0.00000000, 0.00000000, 0.00000000, 0.00000000
1, 0.5149, 181, 0.79957139, 0.06596185, 0.59948212, -2.54932117, -3.72293854, -0.19623975, 0.00000000, 0.00000000, 0.00000000, -170.80009460, 51.81660461, -152.52516174, -0.44019699, -0.17887874, 0.87927061, 0.03335079, -0.01353550, 0.03287317, 0.01074660, 0.00000000, 0.00000000, 0.00000000, 0.00000000
1, 0.5174, 182, 0.80102974, 0.06547798, 0.60046548, -2.54867935, -3.65204144, -0.33544263, 0.00000000, 0.00000000, 0.00000000, -170.80357361, 51.82548904, -152.52145386, -0.44025734, -0.17890701, 0.87923241, 0.03341071, -0.01489794, 0.03330070, 0.00964892, 0.00000000, 0.00000000, 0.00000000, 0.00000000
1, 0.5199, 183, 0.80007118, 0.06304277, 0.60093236, -2.47666883, -3.64981818, -0.54384750, 0.00000000, 0.00000000, 0.00000000, -170.80619812, 51.83428192, -152.51693726, -0.44031802, -0.17893854, 0.87919331, 0.03346724, -0.01384467, 0.03568863, 0.00906765, 0.00000000, 0.00000000, 0.00000000, 0.00000000
1, 0.5224, 184, 0.80106878, 0.06111149, 0.60044348, -2.26333690, -3.57712340, -0.75016522, 0.00000000, 0.00000000, 0.00000000, -170.80767822, 51.84280396, -152.51162720, -0.44037840, -0.17897208, 0.87915444, 0.03351741, -0.01475031, 0.03758541, 0.00944346, 0.00000000, 0.00000000, 0.00000000, 0.00000000
1, 0.5249, 185, 0.80303055, 0.06259674, 0.59803164, -1.97827792, -3.85242605, -0.95721042, 0.00000000, 0.00000000, 0.00000000, -170.80764771, 51.85192490, -152.50531006, -0.44044524, -0.17900664, 0.87911224, 0.03356120, -0.01661373, 0.03608038, 0.01173169, 0.00000000, 0.00000000, 0.00000000, 0.00000000
1, 0.5274, 186, 0.80598438, 0.06116941, 0.59658706, -1.83537483, -4.19941998, -1.02681804, 0.00000000, 0.00000000, 0.00000000, -170.80688477, 51.86188507, -152.49847412, -0.44051936, -0.17904091, 0.87906653, 0.03360294, -0.01946020, 0.03749412, 0.01304001, 0.00000000, 0.00000000, 0.00000000, 0.00000000
1, 0.5299, 187, 0.80692780, 0.06212720, 0.59903479, -1.62190902, -4.47633696, -1.09522092, 0.00000000, 0.00000000, 0.00000000, -170.80522156, 51.87250519, -152.49121094, -0.44059968, -0.17907423, 0.87901801, 0.03364100, -0.02028919, 0.03653080, 0.01044566, 0.00000000, 0.00000000, 0.00000000, 0.00000000
1, 0.5324, 188, 0.80983686, 0.06359626, 0.59955275, -1.54953980, -4.75343943, -1.23515153, 0.00000000, 0.00000000, 0.00000000, -170.80279541, 51.88373184, -152.48320007, -0.44068569, -0.17910933, 0.87896633, 0.03367742, -0.02307725, 0.03506295, 0.00977123, 0.00000000, 0.00000000, 0.00000000, 0.00000000
1, 0.5349, 189, 0.81032431, 0.06311031, 0.60004121, -1.54953980, -4.75343943, -1.23515153, 0.00000000, 0.00000000, 0.00000000, -170.80033875, 51.89497375, -152.47517395, -0.44077170, -0.17914444, 0.87891465, 0.03371383, -0.02344358, 0.03555012, 0.00912625, 0.00000000, 0.00000000, 0.00000000, 0.00000000
1, 0.5374, 190, 0.81033295, 0.06213997, 0.60003632, -1.40786064, -4.96229172, -1.16459000, 0.00000000, 0.00000000, 0.00000000, -170.79766846, 51.90676117, -152.46728516, -0.44086221, -0.17917667, 0.87886137, 0.03374903, -0.02332533, 0.03652305, 0.00896675, 0.00000000, 0.00000000, 0.00000000, 0.00000000
1, 0.5399, 191, 0.81129086, 0.06359755, 0.60053855, -1.40586078, -5.37914896, -1.30604720, 0.00000000, 0.00000000, 0.00000000, -170.82072449, 51.93210602, -152.47821045, -0.44102007, -0.17914331, 0.87878162, 0.03393860, -0.02401042, 0.03476480, 0.00816041, 0.00000000, 0.00000000, 0.00000000, 0.00000000
1, 0.5424, 192, 0.81076765, 0.06649837, 0.60152328, -1.26312232, -5.51649666, -1.44445121, 0.00000000, 0.00000000, 0.00000000, -170.81651306, 51.94513702, -152.46884155, -0.44112197, -0.17917907, 0.87872195, 0.03397048, -0.02334690, 0.03188008, 0.00699157, 0.00000000, 0.00000000, 0.00000000, 0.00000000
1, 0.5449, 193, 0.81126988, 0.06700102, 0.59958172, -1.19239497, -5.65606689, -1.37445021, 0.00000000, 0.00000000, 0.00000000, -170.81228638, 51.95854568, -152.45968628, -0.44122675, -0.17921270, 0.87866127, 0.03400222, -0.02370495, 0.03139298, 0.00874388, 0.00000000, 0.00000000, 0.00000000, 0.00000000
1, 0.5474, 194, 0.81124783, 0.06893803, 0.60007846, -1.12147319, -5.86531639, -1.30477130, 0.00000000, 0.00000000, 0.00000000, -170.80798340, 51.97250366, -152.45065308, -0.44133577, -0.17924416, 0.87859887, 0.03403409, -0.02353282, 0.02947108, 0.00805044, 0.00000000, 0.00000000, 0.00000000, 0.00000000
1, 0.5499, 195, 0.81318128, 0.07040135, 0.60058856, -1.04849207, -6.21148872, -1.51478636, 0.00000000, 0.00000000, 0.00000000, -170.80265808, 51.98723221, -152.44055176, -0.44145185, -0.17927867, 0.87853235, 0.03406389, -0.02530796, 0.02803200, 0.00733137, 0.00000000, 0.00000000, 0.00000000, 0.00000000
1, 0.5524, 196, 0.81316465, 0.07331965, 0.59962928, -1.11924946, -6.21188545, -1.51566899, 0.00000000, 0.00000000, 0.00000000, -170.79747009, 52.00195694, -152.43045044, -0.44156766, -0.17931388, 0.87846577, 0.03409504, -0.02513308, 0.02513613, 0.00808186, 0.00000000, 0.00000000, 0.00000000, 0.00000000
1, 0.5549, 197, 0.81073576, 0.07429025, 0.59766650, -1.04852188, -6.35145569, -1.44566798, 0.00000000, 0.00000000, 0.00000000, -170.79228210, 52.01704025, -152.42053223, -0.44168633, -0.17934696, 0.87839818, 0.03412606, -0.02254212, 0.02418741, 0.00983072, 0.00000000, 0.00000000, 0.00000000, 0.00000000
1, 0.5574, 198, 0.80923659, 0.07669652, 0.59912783, -1.11811519, -6.76992702, -1.44848287, 0.00000000, 0.00000000, 0.00000000, -170.78703308, 52.03317261, -152.41032410, -0.44181275, -0.17938046, 0.87832642, 0.03416002, -0.02086974, 0.02180135, 0.00814146, 0.00000000, 0.00000000, 0.00000000, 0.00000000
1, 0.5599, 199, 0.80774575, 0.07764363, 0.60106885, -1.04716372, -6.83920956, -1.44792235, 0.00000000, 0.00000000, 0.00000000, -170.78155518, 52.04947281, -152.40007019, -0.44194075, -0.17941320, 0.87825406, 0.03419289, -0.01920391, 0.02087628, 0.00596965, 0.00000000, 0.00000000, 0.00000000, 0.00000000
1, 0.5624, 200, 0.80672461, 0.07955664, 0.60399258, -1.11998069, -6.70268297, -1.16911089, 0.00000000, 0.00000000, 0.00000000, -170.77722168, 52.06554413, -152.39099121, -0.44206566, -0.17944139, 0.87818402, 0.03422932, -0.01801026, 0.01897385, 0.00282007, 0.00000000, 0.00000000, 0.00000000, 0.00000000
1, 0.5699, 201, 0.80625266, 0.08200883, 0.60010499, -1.19215620, -6.49526024, -1.02950251, 0.00000000, 0.00000000, 0.00000000, -170.76548767, 52.11294937, -152.36457825, -0.44243246, -0.17952634, 0.87797743, 0.03434401, -0.01702994, 0.01654121, 0.00604308, 0.00000000, 0.00000000, 0.00000000, 0.00000000
1, 0.5724, 202, 0.80724669, 0.08154036, 0.59864956, -1.19193232, -6.42497253, -1.09894288, 0.00000000, 0.00000000, 0.00000000, -170.76165771, 52.12836456, -152.35595703, -0.44255167, -0.17955409, 0.87791020, 0.03438140, -0.01785881, 0.01701601, 0.00728238, 0.00000000, 0.00000000, 0.00000000, 0.00000000
1, 0.5749, 203, 0.80381322, 0.08150566, 0.60056978, -1.19176817, -6.63461876, -1.03014660, 0.00000000, 0.00000000, 0.00000000, -170.75794983, 52.14431381, -152.34747314, -0.44267485, -0.17958035, 0.87784123, 0.03442027, -0.01425445, 0.01705465, 0.00513870, 0.00000000, 0.00000000, 0.00000000, 0.00000000
1, 0.5774, 204, 0.80426925, 0.08294941, 0.60252905, -1.12142849, -6.63483095, -0.95950139, 0.00000000, 0.00000000, 0.00000000, -170.75427246, 52.16030502, -152.33927917, -0.44279826, -0.17960458, 0.87777257, 0.03445847, -0.01453924, 0.01561438, 0.00295562, 0.00000000, 0.00000000, 0.00000000, 0.00000000
1, 0.5799, 205, 0.80324376, 0.08534759, 0.60545528, -1.05211866, -6.56658077, -0.74900949, 0.00000000, 0.00000000, 0.00000000, -170.75112915, 52.17620850, -152.33195496, -0.44292039, -0.17962414, 0.87770528, 0.03449711, -0.01334357, 0.01321422, -0.00019240, 0.00000000, 0.00000000, 0.00000000, 0.00000000
1, 0.5824, 206, 0.80031264, 0.08581553, 0.60543406, -0.91321588, -6.07986069, -0.53570265, 0.00000000, 0.00000000, 0.00000000, -170.74856567, 52.19099045, -152.32580566, -0.44303370, -0.17963865, 0.87764382, 0.03453325, -0.01025421, 0.01274063, -0.00037682, 0.00000000, 0.00000000, 0.00000000, 0.00000000
1, 0.5849, 207, 0.80082327, 0.08485904, 0.60397214, -0.98455518, -5.87121964, -0.53561902, 0.00000000, 0.00000000, 0.00000000, -170.74626160, 52.20527267, -152.31980896, -0.44314268, -0.17965400, 0.87758428, 0.03456993, -0.01061201, 0.01368962, 0.00088698, 0.00000000, 0.00000000, 0.00000000, 0.00000000
1, 0.5874, 208, 0.79980570, 0.08530924, 0.60786259, -0.98594314, -5.52343321, -0.46424633, 0.00000000, 0.00000000, 0.00000000, -170.74440002, 52.21870422, -152.31431580, -0.44324484, -0.17966825, 0.87752825, 0.03460597, -0.00945085, 0.01322937, -0.00318974, 0.00000000, 0.00000000, 0.00000000, 0.00000000
1, 0.5899, 209, 0.79981911, 0.08434255, 0.60737073, -0.84487617, -5.66321516, -0.32360032, 0.00000000, 0.00000000, 0.00000000, -170.75645447, 52.23564148, -152.32017517, -0.44335493, -0.17964415, 0.87747335, 0.03471239, -0.00928319, 0.01403128, -0.00290781, 0.00000000, 0.00000000, 0.00000000, 0.00000000
1, 0.5924, 210, 0.79883480, 0.08530715, 0.60736775, -0.84645814, -5.24574947, -0.25190559, 0.00000000, 0.00000000, 0.00000000, -170.75503540, 52.24849701, -152.31571960, -0.44345224, -0.17965318, 0.87742096, 0.03474671, -0.00816149, 0.01305307, -0.00308222, 0.00000000, 0.00000000, 0.00000000, 0.00000000
1, 0.5949, 211, 0.79638892, 0.08870724, 0.60493022, -0.98977870, -4.89936495, -0.11253557, 0.00000000, 0.00000000, 0.00000000, -170.75460815, 52.26054001, -152.31204224, -0.44354224, -0.17966121, 0.87737232, 0.03478377, -0.00558692, 0.00963080, -0.00080943, 0.00000000, 0.00000000, 0.00000000, 0.00000000
1, 0.5974, 212, 0.79392314, 0.09062626, 0.60589421, -0.84901017, -4.47988796, -0.17860061, 0.00000000, 0.00000000, 0.00000000, -170.75384521, 52.27152252, -152.30838013, -0.44362485, -0.17966945, 0.87732774, 0.03481586, -0.00300372, 0.00769557, -0.00192440, 0.00000000, 0.00000000, 0.00000000, 0.00000000
1, 0.5999, 213, 0.79392314, 0.09062626, 0.60589421, -0.84901017, -4.47988796, -0.17860061, 0.00000000, 0.00000000, 0.00000000, -170.75306702, 52.28250504, -152.30471802, -0.44370735, -0.17967767, 0.87728292, 0.03484794, -0.00288659, 0.00767934, -0.00207543, 0.00000000, 0.00000000, 0.00000000, 0.00000000
1, 0.6024, 214, 0.79352355, 0.08922635, 0.59809119, -0.49558145, -4.19857979, -0.24266207, 0.00000000, 0.00000000, 0.00000000, -170.75134277, 52.29277802, -152.30099487, -0.44378594, -0.17968392, 0.87724096, 0.03487153, -0.00237757, 0.00907456, 0.00558478, 0.00000000, 0.00000000, 0.00000000, 0.00000000
1, 0.6049, 215, 0.79352355, 0.08922635, 0.59809119, -0.49558145, -4.19857979, -0.24266207, 0.00000000, 0.00000000, 0.00000000, -170.74961853, 52.30302811, -152.29724121, -0.44386452, -0.17969018, 0.87719899, 0.03489513, -0.00226790, 0.00906991, 0.00544208, 0.00000000, 0.00000000, 0.00000000, 0.00000000
1, 0.6074, 216, 0.79062140, 0.08434287, 0.59999096, -0.77831250, -4.75942564, -0.03948130, 0.00000000, 0.00000000, 0.00000000, -170.74896240, 52.31475067, -152.29396057, -0.44395259, -0.17969486, 0.87715214, 0.03492830, 0.00075936, 0.01393426, 0.00338125, 0.00000000, 0.00000000, 0.00000000, 0.00000000
1, 0.6099, 217, 0.79062140, 0.08434287, 0.59999096, -0.77831250, -4.75942564, -0.03948130, 0.00000000, 0.00000000, 0.00000000, -170.74830627, 52.32648468, -152.29066467, -0.44404066, -0.17969954, 0.87710530, 0.03496147, 0.00088453, 0.01391515, 0.00322026, 0.00000000, 0.00000000, 0.00000000, 0.00000000
1, 0.6124, 218, 0.78956658, 0.09160365, 0.60148072, -0.84774166, -5.38754272, 0.02650018, 0.00000000, 0.00000000, 0.00000000, -170.74771118, 52.33978653, -152.28723145, -0.44414037, -0.17970313, 0.87705255, 0.03499907, 0.00208122, 0.00663114, 0.00154805, 0.00000000, 0.00000000, 0.00000000, 0.00000000
1, 0.6149, 219, 0.78956658, 0.09160365, 0.60148072, -0.84774166, -5.38754272, 0.02650018, 0.00000000, 0.00000000, 0.00000000, -170.74711609, 52.35309601, -152.28379822, -0.44424009, -0.17970672, 0.87699980, 0.03503666, 0.00222307, 0.00660791, 0.00136566, 0.00000000, 0.00000000, 0.00000000, 0.00000000
1, 0.6174, 220, 0.79208040, 0.08483665, 0.60000527, -0.77720815, -5.45743465, 0.09682319, 0.00000000, 0.00000000, 0.00000000, -170.74652100, 52.36659622, -152.28059387, -0.44434142, -0.17970824, 0.87694669, 0.03507387, -0.00014681, 0.01335116, 0.00265580, 0.00000000, 0.00000000, 0.00000000, 0.00000000
1, 0.6199, 221, 0.79013360, 0.08434001, 0.59998703, -0.98898774, -6.08756304, 0.30056450, 0.00000000, 0.00000000, 0.00000000, -170.74678040, 52.38172913, -152.27780151, -0.44445378, -0.17970741, 0.87688810, 0.03511957, 0.00196123, 0.01381139, 0.00246787, 0.00000000, 0.00000000, 0.00000000, 0.00000000
1, 0.6224, 222, 0.79109359, 0.08873050, 0.59758204, -0.91629034, -6.78395700, 0.29822659, 0.00000000, 0.00000000, 0.00000000, -170.74647522, 52.39859390, -152.27453613, -0.44457972, -0.17970538, 0.87682277, 0.03516659, 0.00118089, 0.00938650, 0.00464231, 0.00000000, 0.00000000, 0.00000000, 0.00000000
1, 0.6249, 223, 0.79111207, 0.08825630, 0.59611863, -0.91615599, -7.13357019, 0.43614128, 0.00000000, 0.00000000, 0.00000000, -170.74645996, 52.41637039, -152.27159119, -0.44471225, -0.17970045, 0.87675458, 0.03521631, 0.00135171, 0.00982156, 0.00586301, 0.00000000, 0.00000000, 0.00000000, 0.00000000
1, 0.6274, 224, 0.79113084, 0.08827091, 0.59417069, -0.98664463, -7.83319283, 0.71108812, 0.00000000, 0.00000000, 0.00000000, -170.74710083, 52.43599319, -152.26931763, -0.44485769, -0.17969039, 0.87668061, 0.03527279, 0.00154173, 0.00975645, 0.00754428, 0.00000000, 0.00000000, 0.00000000, 0.00000000
1, 0.6299, 225, 0.79304981, 0.08923444, 0.59662628, -1.12560725, -8.59984779, 0.63601810, 0.00000000, 0.00000000, 0.00000000, -170.74746704, 52.45746231, -152.26620483, -0.44501728, -0.17968254, 0.87659878, 0.03533421, -0.00014883, 0.00874137, 0.00479603, 0.00000000, 0.00000000, 0.00000000, 0.00000000
1, 0.6324, 226, 0.79253960, 0.09067977, 0.59760362, -1.05335748, -9.43681717, 0.77256101, 0.00000000, 0.00000000, 0.00000000, -170.74765015, 52.48105621, -152.26312256, -0.44519302, -0.17967071, 0.87650937, 0.03539884, 0.00061226, 0.00724166, 0.00349665, 0.00000000, 0.00000000, 0.00000000, 0.00000000
1, 0.6349, 227, 0.79252440, 0.08920234, 0.60051817, -1.12317467, -9.92557716, 0.83918661, 0.00000000, 0.00000000, 0.00000000, -170.74794006, 52.50588608, -152.25996399, -0.44537777, -0.17965791, 0.87641537, 0.03546738, 0.00089127, 0.00866059, 0.00024331, 0.00000000, 0.00000000, 0.00000000, 0.00000000
1, 0.6374, 228, 0.79544115, 0.08823461, 0.60248488, -0.98213750, -10.20532608, 1.04895091, 0.00000000, 0.00000000, 0.00000000, -170.74844360, 52.53148270, -152.25747681, -0.44556823, -0.17963949, 0.87631953, 0.03553635, -0.00175363, 0.00956626, -0.00207257, 0.00000000, 0.00000000, 0.00000000, 0.00000000
1, 0.6399, 229, 0.79544586, 0.08823827, 0.60199791, -1.26586854, -10.55774403, 1.32286036, 0.00000000, 0.00000000, 0.00000000, -170.75532532, 52.55826187, -152.25993347, -0.44575885, -0.17960647, 0.87622517, 0.03563770, -0.00147408, 0.00943078, -0.00193989, 0.00000000, 0.00000000, 0.00000000, 0.00000000
1, 0.6424, 230, 0.79546398, 0.08727524, 0.60101908, -1.40544307, -11.25532913, 1.31787479, 0.00000000, 0.00000000, 0.00000000, -170.75717163, 52.58656693, -152.25785828, -0.44596750, -0.17958619, 0.87611979, 0.03572148, -0.00119197, 0.01031134, -0.00134510, 0.00000000, 0.00000000, 0.00000000, 0.00000000
1, 0.6449, 231, 0.79644459, 0.08777346, 0.60005546, -1.47664821, -11.39630032, 1.45587301, 0.00000000, 0.00000000, 0.00000000, -170.75958252, 52.61526871, -152.25622559, -0.44617841, -0.17956385, 0.87601346, 0.03580853, -0.00186837, 0.00972405, -0.00077027, 0.00000000, 0.00000000, 0.00000000, 0.00000000
1, 0.6474, 232, 0.79838234, 0.08875160, 0.60056305, -1.47615564, -12.02523899, 1.66226196, 0.00000000, 0.00000000, 0.00000000, -170.76232910, 52.64561081, -152.25502014, -0.44640109, -0.17953704, 0.87590164, 0.03590002, -0.00348467, 0.00864968, -0.00168860, 0.00000000, 0.00000000, 0.00000000, 0.00000000
1, 0.6499, 233, 0.80034876, 0.09024049, 0.59766430, -1.61608863, -12.44349766, 1.58880222, 0.00000000, 0.00000000, 0.00000000, -170.76496887, 52.67695999, -152.25326538, -0.44663131, -0.17951268, 0.87578541, 0.03599512, -0.00511921, 0.00706347, 0.00078541, 0.00000000, 0.00000000, 0.00000000, 0.00000000
1, 0.6524, 234, 0.80137026, 0.08881631, 0.59425598, -1.61631250, -12.51378727, 1.65824246, 0.00000000, 0.00000000, 0.00000000, -170.76777649, 52.70849228, -152.25172424, -0.44686279, -0.17948693, 0.87566870, 0.03609117, -0.00580704, 0.00838794, 0.00376618, 0.00000000, 0.00000000, 0.00000000, 0.00000000
1, 0.6549, 235, 0.80186242, 0.08833402, 0.59425747, -1.68690562, -12.72382832, 1.72615612, 0.00000000, 0.00000000, 0.00000000, -170.77088928, 52.74059296, -152.25032043, -0.44709781, -0.17946038, 0.87554997, 0.03619004, -0.00596011, 0.00876629, 0.00333023, 0.00000000, 0.00000000, 0.00000000, 0.00000000
1, 0.6574, 236, 0.80381685, 0.08639386, 0.59572440, -1.82806206, -13.00394630, 1.79286540, 0.00000000, 0.00000000, 0.00000000, -170.77441406, 52.77338791, -152.24902344, -0.44733766, -0.17943370, 0.87542874, 0.03629337, -0.00756800, 0.01059652, 0.00141931, 0.00000000, 0.00000000, 0.00000000, 0.00000000
1, 0.6599, 237, 0.80232602, 0.08734097, 0.59766543, -1.75752854, -13.07383919, 1.86318851, 0.00000000, 0.00000000, 0.00000000, -170.77796936, 52.80640411, -152.24797058, -0.44757891, -0.17940490, 0.87530696, 0.03639629, -0.00572872, 0.00953889, -0.00096858, 0.00000000, 0.00000000, 0.00000000, 0.00000000
1, 0.6624, 238, 0.80331135, 0.08784284, 0.59621477, -1.75958812, -12.93691444, 2.14288235, 0.00000000, 0.00000000, 0.00000000, -170.78251648, 52.83917618, -152.24813843, -0.44781739, -0.17937090, 0.87518764, 0.03650145, -0.00636840, 0.00891672, 0.00003976, 0.00000000, 0.00000000, 0.00000000, 0.00000000
1, 0.6649, 239, 0.80624753, 0.08786736, 0.59526449, -1.97166646, -13.00778389, 2.13991261, 0.00000000, 0.00000000, 0.00000000, -170.78753662, 52.87213898, -152.24826050, -0.44805634, -0.17933895, 0.87506735, 0.03661091, -0.00895715, 0.00876653, 0.00054586, 0.00000000, 0.00000000, 0.00000000, 0.00000000
1, 0.6674, 240, 0.80628735, 0.08447850, 0.59427339, -2.04316998, -12.58949757, 2.07119966, 0.00000000, 0.00000000, 0.00000000, -170.79273987, 52.90403748, -152.24838257, -0.44828698, -0.17930929, 0.87495065, 0.03671942, -0.00866109, 0.01203018, 0.00110751, 0.00000000, 0.00000000, 0.00000000, 0.00000000
1, 0.6699, 241, 0.80877256, 0.08355174, 0.59039241, -2.04397583, -12.45074749, 2.14160633, 0.00000000, 0.00000000, 0.00000000, -170.79824829, 52.93562317, -152.24888611, -0.44851494, -0.17927845, 0.87483567, 0.03682808, -0.01081401, 0.01282934, 0.00456369, 0.00000000, 0.00000000, 0.00000000, 0.00000000
1, 0.6724, 242, 0.80828625, 0.08550415, 0.58845031, -2.11576295, -12.38268471, 2.28057075, 0.00000000, 0.00000000, 0.00000000, -170.80444336, 52.96709442, -152.25003052, -0.44874111, -0.17924565, 0.87472159, 0.03693921, -0.00999677, 0.01074259, 0.00608349, 0.00000000, 0.00000000, 0.00000000, 0.00000000
1, 0.6749, 243, 0.80833614, 0.08310024, 0.58551615, -1.90487897, -12.03370571, 2.35459137, 0.00000000, 0.00000000, 0.00000000, -170.81053162, 52.99773026, -152.25169373, -0.44896141, -0.17920968, 0.87461144, 0.03704567, -0.00972468, 0.01301508, 0.00860637, 0.00000000, 0.00000000, 0.00000000, 0.00000000
1, 0.6774, 244, 0.81033790, 0.08168545, 0.58162874, -1.90693843, -11.89678288, 2.63428497, 0.00000000, 0.00000000, 0.00000000, -170.81764221, 53.02813721, -152.25459290, -0.44917884, -0.17916848, 0.87450367, 0.03715437, -0.01140714, 0.01428865, 0.01208711, 0.00000000, 0.00000000, 0.00000000, 0.00000000
1, 0.6799, 245, 0.80988294, 0.08170816, 0.57821596, -2.04987073, -11.68975735, 2.77301097, 0.00000000, 0.00000000, 0.00000000, -170.82565308, 53.05810165, -152.25822449, -0.44939163, -0.17912619, 0.87439829, 0.03726635, -0.01063770, 0.01411620, 0.01510090, 0.00000000, 0.00000000, 0.00000000, 0.00000000
1, 0.6824, 246, 0.81043655, 0.08176218, 0.57140213, -1.76642358, -11.68756104, 2.70677876, 0.00000000, 0.00000000, 0.00000000, -170.83276367, 53.08802795, -152.26159668, -0.44960541, -0.17908235, 0.87429273, 0.03737226, -0.01087761, 0.01392202, 0.02151448, 0.00000000, 0.00000000, 0.00000000, 0.00000000
1, 0.6849, 247, 0.81978112, 0.07699060, 0.56804371, -0.91761863, -12.03302288, 2.92504692, 0.00000000, 0.00000000, 0.00000000, -170.83828735, 53.11887741, -152.26564026, -0.44982895, -0.17902575, 0.87418538, 0.03746546, -0.01989890, 0.01856780, 0.02445681, 0.00000000, 0.00000000, 0.00000000, 0.00000000
1, 0.6874, 248, 0.80052340, 0.07865132, 0.59030092, -0.56447339, -12.10193634, 3.06866288, 0.00000000, 0.00000000, 0.00000000, -170.84338379, 53.14997482, -152.27023315, -0.45005506, -0.17896287, 0.87407815, 0.03755361, -0.00031555, 0.01678537, 0.00177956, 0.00000000, 0.00000000, 0.00000000, 0.00000000
1, 0.6899, 249, 0.80389094, 0.07863487, 0.59519833, -1.55740499, -11.27134228, 3.06017137, 0.00000000, 0.00000000, 0.00000000, -170.85885620, 53.17936707, -152.28144836, -0.45025438, -0.17889291, 0.87398380, 0.03769125, -0.00337553, 0.01657669, -0.00349754, 0.00000000, 0.00000000, 0.00000000, 0.00000000
1, 0.6924, 250, 0.81076169, 0.08408125, 0.58602774, -2.12795615, -9.81186199, 3.12963581, 0.00000000, 0.00000000, 0.00000000, -170.86930847, 53.20483017, -152.28784180, -0.45043060, -0.17884608, 0.87389791, 0.03780086, -0.00998002, 0.01096604, 0.00533909, 0.00000000, 0.00000000, 0.00000000, 0.00000000
1, 0.6949, 251, 0.81129724, 0.08509830, 0.58019280, -1.98832214, -8.83434391, 2.99638486, 0.00000000, 0.00000000, 0.00000000, -170.87948608, 53.22782898, -152.29435730, -0.45058882, -0.17880119, 0.87382114, 0.03790269, -0.01027519, 0.00979298, 0.01087350, 0.00000000, 0.00000000, 0.00000000, 0.00000000
1, 0.6974, 252, 0.81531709, 0.07886160, 0.57386184, -1.84938896, -8.20765591, 3.14057302, 0.00000000, 0.00000000, 0.00000000, -170.89012146, 53.24933624, -152.30186462, -0.45073548, -0.17875272, 0.87375116, 0.03800083, -0.01407040, 0.01587222, 0.01692522, 0.00000000, 0.00000000, 0.00000000, 0.00000000
1, 0.6999, 253, 0.81688499, 0.07406605, 0.56751841, -1.56613576, -8.13578129, 3.07466340, 0.00000000, 0.00000000, 0.00000000, -170.89988708, 53.27062988, -152.30917358, -0.45088190, -0.17870277, 0.87368184, 0.03809265, -0.01541597, 0.02051990, 0.02299053, 0.00000000, 0.00000000, 0.00000000, 0.00000000
1, 0.7024, 254, 0.81347257, 0.07697889, 0.56458354, -1.21176684, -8.34283638, 3.07811022, 0.00000000, 0.00000000, 0.00000000, -170.90869141, 53.29243851, -152.31636047, -0.45103362, -0.17864910, 0.87361073, 0.03817855, -0.01177597, 0.01746820, 0.02563871, 0.00000000, 0.00000000, 0.00000000, 0.00000000
1, 0.7049, 255, 0.81155783, 0.07553019, 0.56212550, -1.28274810, -8.41351986, 3.14666748, 0.00000000, 0.00000000, 0.00000000, -170.91786194, 53.31446075, -152.32380676, -0.45118630, -0.17859472, 0.87353903, 0.03826675, -0.00963157, 0.01877380, 0.02780765, 0.00000000, 0.00000000, 0.00000000, 0.00000000
1, 0.7074, 256, 0.81252772, 0.07406581, 0.56407398, -1.28307641, -7.99422789, 3.00907516, 0.00000000, 0.00000000, 0.00000000, -170.92681885, 53.33538818, -152.33096313, -0.45133114, -0.17854334, 0.87347096, 0.03835197, -0.01038337, 0.02009986, 0.02558465, 0.00000000, 0.00000000, 0.00000000, 0.00000000
1, 0.7099, 257, 0.81100863, 0.07499100, 0.56893688, -1.21306527, -7.57514811, 2.94212747, 0.00000000, 0.00000000, 0.00000000, -170.93557739, 53.35524368, -152.33811951, -0.45146835, -0.17849292, 0.87340695, 0.03843357, -0.00865734, 0.01904052, 0.02046162, 0.00000000, 0.00000000, 0.00000000, 0.00000000
1, 0.7124, 258, 0.81293601, 0.07449538, 0.57187217, -0.93036401, -7.15426922, 2.80806518, 0.00000000, 0.00000000, 0.00000000, -170.94345093, 53.37400055, -152.34501648, -0.45159861, -0.17844255, 0.87334651, 0.03850681, -0.01038933, 0.01941387, 0.01727968, 0.00000000, 0.00000000, 0.00000000, 0.00000000
1, 0.7149, 259, 0.81389284, 0.07448650, 0.57382798, -0.71944988, -6.66532612, 2.81296706, 0.00000000, 0.00000000, 0.00000000, -170.95108032, 53.39156342, -152.35226440, -0.45172045, -0.17839044, 0.87329119, 0.03857418, -0.01116335, 0.01930574, 0.01509333, 0.00000000, 0.00000000, 0.00000000, 0.00000000
1, 0.7174, 260, 0.81536525, 0.07401360, 0.57335031, -0.50753593, -6.38481045, 2.74714065, 0.00000000, 0.00000000, 0.00000000, -170.95809937, 53.40840912, -152.35943604, -0.45183781, -0.17833774, 0.87323856, 0.03863577, -0.01246047, 0.01966939, 0.01534945, 0.00000000, 0.00000000, 0.00000000, 0.00000000
1, 0.7199, 261, 0.81685215, 0.07404047, 0.57092726, -0.08293189, -6.10249710, 2.61419916, 0.00000000, 0.00000000, 0.00000000, -170.96376038, 53.42449570, -152.36624146, -0.45195153, -0.17828362, 0.87318850, 0.03868686, -0.01378006, 0.01954878, 0.01755906, 0.00000000, 0.00000000, 0.00000000, 0.00000000
1, 0.7224, 262, 0.81637442, 0.07502255, 0.56898028, 0.19976932, -5.68161726, 2.48013663, 0.00000000, 0.00000000, 0.00000000, -170.96852112, 53.43949509, -152.37277222, -0.45205846, -0.17822960, 0.87314230, 0.03872961, -0.01314634, 0.01848490, 0.01930607, 0.00000000, 0.00000000, 0.00000000, 0.00000000
1, 0.7249, 263, 0.81689107, 0.07602498, 0.56509328, 0.12868360, -5.26272202, 2.34166145, 0.00000000, 0.00000000, 0.00000000, -170.97320557, 53.45342255, -152.37901306, -0.45215726, -0.17817929, 0.87309963, 0.03877072, -0.01351822, 0.01740373, 0.02300811, 0.00000000, 0.00000000, 0.00000000, 0.00000000
1, 0.7274, 264, 0.81538111, 0.07646865, 0.56946677, 0.41216087, -5.12055922, 2.20631099, 0.00000000, 0.00000000, 0.00000000, -170.97680664, 53.46692657, -152.38479614, -0.45225453, -0.17812887, 0.87305802, 0.03880453, -0.01186794, 0.01689330, 0.01845342, 0.00000000, 0.00000000, 0.00000000, 0.00000000
1, 0.7299, 265, 0.81383169, 0.08079000, 0.57434672, 0.83695889, -4.90792418, 2.07304788, 0.00000000, 0.00000000, 0.00000000, -170.97903442, 53.47985458, -152.39016724, -0.45234945, -0.17807695, 0.87301826, 0.03882812, -0.01018423, 0.01252072, 0.01339787, 0.00000000, 0.00000000, 0.00000000, 0.00000000
1, 0.7324, 266, 0.81570512, 0.08367228, 0.57973397, 1.19019353, -4.55693674, 2.00930810, 0.00000000, 0.00000000, 0.00000000, -170.98034668, 53.49189758, -152.39549255, -0.45243916, -0.17802308, 0.87298208, 0.03884298, -0.01193262, 0.00959850, 0.00784606, 0.00000000, 0.00000000, 0.00000000, 0.00000000
1, 0.7349, 267, 0.81911069, 0.08417387, 0.58025104, 1.18967128, -4.06796598, 1.87203777, 0.00000000, 0.00000000, 0.00000000, -170.98146057, 53.50267792, -152.40057373, -0.45251974, -0.17797226, 0.87295032, 0.03885460, -0.01522625, 0.00906178, 0.00718147, 0.00000000, 0.00000000, 0.00000000, 0.00000000
1, 0.7374, 268, 0.81665832, 0.08512621, 0.58072317, 1.25907052, -3.57981539, 1.87517464, 0.00000000, 0.00000000, 0.00000000, -170.98266602, 53.51224899, -152.40600586, -0.45259124, -0.17792107, 0.87292331, 0.03886304, -0.01267439, 0.00807592, 0.00657863, 0.00000000, 0.00000000, 0.00000000, 0.00000000
1, 0.7399, 269, 0.81465864, 0.08947391, 0.58170336, 1.18834305, -3.44024515, 1.80517352, 0.00000000, 0.00000000, 0.00000000, -170.98696899, 53.52869415, -152.41279602, -0.45270970, -0.17786118, 0.87287223, 0.03890431, -0.01050419, 0.00364807, 0.00537741, 0.00000000, 0.00000000, 0.00000000, 0.00000000
1, 0.7424, 270, 0.81317723, 0.09042833, 0.58267039, 1.25974202, -3.36895156, 1.66685343, 0.00000000, 0.00000000, 0.00000000, -170.98759460, 53.53766632, -152.41749573, -0.45277736, -0.17781414, 0.87284648, 0.03890986, -0.00892967, 0.00266743, 0.00428712, 0.00000000, 0.00000000, 0.00000000, 0.00000000
1, 0.7449, 271, 0.81316996, 0.09335394, 0.58073711, 1.47204411, -3.22779465, 1.60038269, 0.00000000, 0.00000000, 0.00000000, -170.98756409, 53.54625702, -152.42202759, -0.45284316, -0.17776638, 0.87282205, 0.03891015, -0.00883335, -0.00027666, 0.00610107, 0.00000000, 0.00000000, 0.00000000, 0.00000000
1, 0.7474, 272, 0.81364584, 0.09627876, 0.57929480, 1.68454027, -3.15631700, 1.53358996, 0.00000000, 0.00000000, 0.00000000, -170.98680115, 53.55465698, -152.42633057, -0.45290849, -0.17771785, 0.87279826, 0.03890547, -0.00922209, -0.00321218, 0.00742579, 0.00000000, 0.00000000, 0.00000000, 0.00000000
1, 0.7499, 273, 0.81170940, 0.09725589, 0.57684898, 1.68473423, -3.22599602, 1.53326786, 0.00000000, 0.00000000, 0.00000000, -170.98600769, 53.56321335, -152.43057251, -0.45297512, -0.17766927, 0.87277377, 0.03890105, -0.00719696, -0.00420001, 0.00975156, 0.00000000, 0.00000000, 0.00000000, 0.00000000
1, 0.7524, 274, 0.81070089, 0.09722458, 0.58024997, 1.54383135, -3.29585934, 1.46141827, 0.00000000, 0.00000000, 0.00000000, -170.98529053, 53.57192993, -152.43446350, -0.45304263, -0.17762339, 0.87274820, 0.03889887, -0.00609803, -0.00418049, 0.00622863, 0.00000000, 0.00000000, 0.00000000, 0.00000000
1, 0.7549, 275, 0.80673856, 0.09862059, 0.58509558, 1.54399538, -3.50550556, 1.53021455, 0.00000000, 0.00000000, 0.00000000, -170.98469543, 53.58119202, -152.43850708, -0.45311400, -0.17757601, 0.87272066, 0.03889817, -0.00203985, -0.00559072, 0.00125366, 0.00000000, 0.00000000, 0.00000000, 0.00000000
1, 0.7574, 276, 0.80617875, 0.10295864, 0.58852255, 1.61533487, -3.71414638, 1.53013098, 0.00000000, 0.00000000, 0.00000000, -170.98381042, 53.59095764, -152.44242859, -0.45318973, -0.17752776, 0.87269133, 0.03889694, -0.00137872, -0.00994117, -0.00231022, 0.00000000, 0.00000000, 0.00000000, 0.00000000
1, 0.7599, 277, 0.80809349, 0.10440734, 0.59098059, 1.68467450, -3.50592995, 1.67150474, 0.00000000, 0.00000000, 0.00000000, -170.98332214, 53.60026550, -152.44706726, -0.45326158, -0.17747629, 0.87266457, 0.03889497, -0.00319713, -0.01140552, -0.00489831, 0.00000000, 0.00000000, 0.00000000, 0.00000000
1, 0.7624, 278, 0.80905998, 0.10489459, 0.59147787, 1.61408126, -3.71597266, 1.73941839, 0.00000000, 0.00000000, 0.00000000, -170.98313904, 53.61012650, -152.45185852, -0.45333710, -0.17742406, 0.87263590, 0.03889582, -0.00406152, -0.01191257, -0.00553268, 0.00000000, 0.00000000, 0.00000000, 0.00000000
1, 0.7649, 279, 0.80760640, 0.10538211, 0.59000754, 1.47214866, -3.71737480, 1.80741560, 0.00000000, 0.00000000, 0.00000000, -170.98353577, 53.62001038, -152.45692444, -0.45341200, -0.17737192, 0.87260729, 0.03890006, -0.00250560, -0.01242595, -0.00419891, 0.00000000, 0.00000000, 0.00000000, 0.00000000
1, 0.7674, 280, 0.80710483, 0.10585710, 0.59097999, 1.33160412, -4.06656361, 1.80404031, 0.00000000, 0.00000000, 0.00000000, -170.98408508, 53.63077164, -152.46174622, -0.45349306, -0.17732094, 0.87257516, 0.03890829, -0.00189269, -0.01293030, -0.00531960, 0.00000000, 0.00000000, 0.00000000, 0.00000000
1, 0.7699, 281, 0.80710989, 0.10634957, 0.59000844, 1.26142859, -4.27599764, 1.80219162, 0.00000000, 0.00000000, 0.00000000, -170.98471069, 53.64203262, -152.46643066, -0.45357782, -0.17727052, 0.87254089, 0.03891865, -0.00178117, -0.01345385, -0.00450343, 0.00000000, 0.00000000, 0.00000000, 0.00000000
1, 0.7724, 282, 0.80758935, 0.10781160, 0.58953279, 1.26095092, -4.55654001, 2.01019073, 0.00000000, 0.00000000, 0.00000000, -170.98587036, 53.65407562, -152.47180176, -0.45366773, -0.17721590, 0.87250465, 0.03893216, -0.00213611, -0.01495432, -0.00419301, 0.00000000, 0.00000000, 0.00000000, 0.00000000
1, 0.7749, 283, 0.80757964, 0.10731547, 0.59099132, 1.11876464, -4.76819706, 2.21674681, 0.00000000, 0.00000000, 0.00000000, -170.98797607, 53.66671371, -152.47787476, -0.45376095, -0.17715858, 0.87246698, 0.03895124, -0.00199562, -0.01450752, -0.00582367, 0.00000000, 0.00000000, 0.00000000, 0.00000000
1, 0.7774, 284, 0.80660874, 0.10731339, 0.59049642, 0.97799605, -5.18767357, 2.28281164, 0.00000000, 0.00000000, 0.00000000, -170.99043274, 53.68041611, -152.48396301, -0.45386153, -0.17710103, 0.87242526, 0.03897528, -0.00088304, -0.01456073, -0.00551522, 0.00000000, 0.00000000, 0.00000000, 0.00000000
1, 0.8074, 285, 0.81219000, 0.09383337, 0.58073169, -0.29553244, -7.64332342, 3.37185359, 0.00000000, 0.00000000, 0.00000000, -171.05281067, 53.89644241, -152.56948853, -0.45540705, -0.17636800, 0.87174124, 0.03957364, -0.00423688, -0.00219086, 0.00134504, 0.00000000, 0.00000000, 0.00000000, 0.00000000
1, 0.8099, 286, 0.81225467, 0.09241807, 0.57536751, -0.15295798, -7.57102442, 3.16465306, 0.00000000, 0.00000000, 0.00000000, -171.05989075, 53.91636658, -152.57775879, -0.45554769, -0.17630279, 0.87167805, 0.03963712, -0.00409669, -0.00089103, 0.00644291, 0.00000000, 0.00000000, 0.00000000, 0.00000000
1, 0.8124, 287, 0.81272334, 0.09191749, 0.57780397, -0.08217077, -7.43066120, 3.09641790, 0.00000000, 0.00000000, 0.00000000, -171.06661987, 53.93592453, -152.58584595, -0.45568600, -0.17623830, 0.87161607, 0.03969804, -0.00436437, -0.00050174, 0.00374478, 0.00000000, 0.00000000, 0.00000000, 0.00000000
1, 0.8149, 288, 0.81715298, 0.08806565, 0.57733291, -0.57689041, -7.64247513, 3.08927369, 0.00000000, 0.00000000, 0.00000000, -171.07447815, 53.95599747, -152.59378052, -0.45582637, -0.17617866, 0.87155139, 0.03976910, -0.00858784, 0.00322648, 0.00394857, 0.00000000, 0.00000000, 0.00000000, 0.00000000
1, 0.8174, 289, 0.81715298, 0.08806565, 0.57733291, -0.57689041, -7.64247513, 3.08927369, 0.00000000, 0.00000000, 0.00000000, -171.08233643, 53.97605896, -152.60171509, -0.45596680, -0.17611903, 0.87148678, 0.03984017, -0.00838185, 0.00310285, 0.00368124, 0.00000000, 0.00000000, 0.00000000, 0.00000000
1, 0.8199, 290, 0.81084043, 0.08902791, 0.57339060, -0.43631592, -7.15331888, 3.02353048, 0.00000000, 0.00000000, 0.00000000, -171.08988953, 53.99490738, -152.60968018, -0.45609853, -0.17605966, 0.87142688, 0.03990602, -0.00187582, 0.00202281, 0.00737268, 0.00000000, 0.00000000, 0.00000000, 0.00000000
1, 0.8224, 291, 0.81084043, 0.08902791, 0.57339060, -0.43631592, -7.15331888, 3.02353048, 0.00000000, 0.00000000, 0.00000000, -171.09744263, 54.01374435, -152.61769104, -0.45623016, -0.17600027, 0.87136686, 0.03997188, -0.00168264, 0.00190501, 0.00712198, 0.00000000, 0.00000000, 0.00000000, 0.00000000
1, 0.8249, 292, 0.81288135, 0.08324663, 0.56948125, -0.36688679, -6.52520180, 2.95754910, 0.00000000, 0.00000000, 0.00000000, -171.10496521, 54.03099823, -152.62583923, -0.45635021, -0.17594200, 0.87131298, 0.04003334, -0.00354666, 0.00757256, 0.01080245, 0.00000000, 0.00000000, 0.00000000, 0.00000000
1, 0.8274, 293, 0.81288135, 0.08324663, 0.56948125, -0.36688679, -6.52520180, 2.95754910, 0.00000000, 0.00000000, 0.00000000, -171.11247253, 54.04825974, -152.63397217, -0.45647025, -0.17588374, 0.87125909, 0.04009481, -0.00336975, 0.00745882, 0.01057345, 0.00000000, 0.00000000, 0.00000000, 0.00000000
1, 0.8299, 294, 0.81437296, 0.08327716, 0.56657112, -0.15500259, -6.38465405, 2.96084070, 0.00000000, 0.00000000, 0.00000000, -171.11955261, 54.06516647, -152.64224243, -0.45658836, -0.17582341, 0.87120664, 0.04015174, -0.00468814, 0.00731976, 0.01325870, 0.00000000, 0.00000000, 0.00000000, 0.00000000
1, 0.8324, 295, 0.81437296, 0.08327716, 0.56657112, -0.15500259, -6.38465405, 2.96084070, 0.00000000, 0.00000000, 0.00000000, -171.12661743, 54.08209229, -152.65049744, -0.45670652, -0.17576309, 0.87115431, 0.04020867, -0.00451481, 0.00721123, 0.01303381, 0.00000000, 0.00000000, 0.00000000, 0.00000000
1, 0.8349, 296, 0.81245136, 0.07889189, 0.56750733, 0.34171689, -6.58969641, 2.82652760, 0.00000000, 0.00000000, 0.00000000, -171.13189697, 54.09944534, -152.65806580, -0.45683059, -0.17570019, 0.87109977, 0.04025561, -0.00241560, 0.01150526, 0.01186324, 0.00000000, 0.00000000, 0.00000000, 0.00000000
1, 0.8374, 297, 0.81438959, 0.08035886, 0.56753045, 0.41250414, -6.44933319, 2.75829196, 0.00000000, 0.00000000, 0.00000000, -171.13685608, 54.11644363, -152.66546631, -0.45695233, -0.17563799, 0.87104642, 0.04029998, -0.00417990, 0.00995121, 0.01161051, 0.00000000, 0.00000000, 0.00000000, 0.00000000
1, 0.8399, 298, 0.81733662, 0.08234596, 0.56366801, 0.05952311, -6.59006548, 2.68347239, 0.00000000, 0.00000000, 0.00000000, -171.14668274, 54.14179993, -152.67498779, -0.45712963, -0.17556624, 0.87096363, 0.04039058, -0.00686759, 0.00780965, 0.01513427, 0.00000000, 0.00000000, 0.00000000, 0.00000000
1, 0.8424, 299, 0.81685311, 0.08185793, 0.56366163, 0.13031036, -6.44970226, 2.61523676, 0.00000000, 0.00000000, 0.00000000, -171.15185547, 54.15873337, -152.68179321, -0.45725039, -0.17550957, 0.87090945, 0.04043889, -0.00621098, 0.00820849, 0.01491201, 0.00000000, 0.00000000, 0.00000000, 0.00000000
1, 0.8449, 300, 0.81927299, 0.08136883, 0.56611383, 0.34241831, -6.23886585, 2.54908824, 0.00000000, 0.00000000, 0.00000000, -171.15640259, 54.17512512, -152.68844604, -0.45736802, -0.17545223, 0.87085730, 0.04048170, -0.00846332, 0.00861608, 0.01223773, 0.00000000, 0.00000000, 0.00000000, 0.00000000
1, 0.8474, 301, 0.82169348, 0.08185738, 0.56759697, 0.41404137, -6.09728527, 2.34132719, 0.00000000, 0.00000000, 0.00000000, -171.16012573, 54.19109726, -152.69432068, -0.45748332, -0.17539823, 0.87080568, 0.04052053, -0.01072085, 0.00805514, 0.01053721, 0.00000000, 0.00000000, 0.00000000, 0.00000000
1, 0.8499, 302, 0.82172167, 0.08187930, 0.56467503, 0.48482859, -5.95692062, 2.27309132, 0.00000000, 0.00000000, 0.00000000, -171.16352844, 54.20667267, -152.69999695, -0.45759639, -0.17534496, 0.87075543, 0.04055680, -0.01058984, 0.00796502, 0.01324648, 0.00000000, 0.00000000, 0.00000000, 0.00000000
1, 0.8524, 303, 0.81977957, 0.08138631, 0.56416982, 0.48424652, -5.74788332, 2.27405739, 0.00000000, 0.00000000, 0.00000000, -171.16703796, 54.22175598, -152.70582581, -0.45770535, -0.17529184, 0.87070704, 0.04059229, -0.00849396, 0.00838974, 0.01354635, 0.00000000, 0.00000000, 0.00000000, 0.00000000
1, 0.8549, 304, 0.82371449, 0.08094602, 0.56127709, 0.55586952, -5.60630226, 2.06629705, 0.00000000, 0.00000000, 0.00000000, -171.16975403, 54.23638916, -152.71087646, -0.45781219, -0.17524210, 0.87065953, 0.04062381, -0.01227951, 0.00877091, 0.01623840, 0.00000000, 0.00000000, 0.00000000, 0.00000000
1, 0.8574, 305, 0.82320499, 0.08336898, 0.56128538, 0.62576133, -5.74708986, 2.27582264, 0.00000000, 0.00000000, 0.00000000, -171.17292786, 54.25146866, -152.71673584, -0.45792171, -0.17518753, 0.87061137, 0.04065662, -0.01161623, 0.00628314, 0.01602418, 0.00000000, 0.00000000, 0.00000000, 0.00000000
1, 0.8599, 306, 0.82076997, 0.08238065, 0.56174773, 0.83948112, -5.81375265, 2.06886125, 0.00000000, 0.00000000, 0.00000000, -171.17483521, 54.26662445, -152.72166443, -0.45803350, -0.17513469, 0.87056190, 0.04068357, -0.00902671, 0.00721933, 0.01535255, 0.00000000, 0.00000000, 0.00000000, 0.00000000
1, 0.8624, 307, 0.82076889, 0.08091419, 0.56320137, 0.90985048, -5.67399836, 2.07038784, 0.00000000, 0.00000000, 0.00000000, -171.17665100, 54.28142929, -152.72668457, -0.45814291, -0.17508124, 0.87051392, 0.04070865, -0.00887472, 0.00863537, 0.01369447, 0.00000000, 0.00000000, 0.00000000, 0.00000000
1, 0.8649, 308, 0.82516128, 0.08387292, 0.56032962, 0.83989900, -5.81314373, 1.99909854, 0.00000000, 0.00000000, 0.00000000, -171.17831421, 54.29655075, -152.73133850, -0.45825472, -0.17502972, 0.87046421, 0.04073489, -0.01311308, 0.00562694, 0.01635695, 0.00000000, 0.00000000, 0.00000000, 0.00000000
1, 0.8674, 309, 0.82319307, 0.08629093, 0.55983907, 0.91107428, -5.81213856, 1.93021894, 0.00000000, 0.00000000, 0.00000000, -171.17958069, 54.31164551, -152.73568726, -0.45836687, -0.17497879, 0.87041432, 0.04075908, -0.01099104, 0.00316346, 0.01663804, 0.00000000, 0.00000000, 0.00000000, 0.00000000
1, 0.8699, 310, 0.82268244, 0.08724744, 0.56130099, 0.84115267, -5.81131744, 1.78981113, 0.00000000, 0.00000000, 0.00000000, -171.18052673, 54.32669830, -152.73944092, -0.45847881, -0.17493121, 0.87036371, 0.04078318, -0.01032728, 0.00216466, 0.01496685, 0.00000000, 0.00000000, 0.00000000, 0.00000000
1, 0.8724, 311, 0.82655269, 0.08822244, 0.56377232, 0.91132802, -5.60188389, 1.79165983, 0.00000000, 0.00000000, 0.00000000, -171.18142700, 54.34121704, -152.74334717, -0.45858708, -0.17488310, 0.87031537, 0.04080518, -0.01404977, 0.00114907, 0.01229340, 0.00000000, 0.00000000, 0.00000000, 0.00000000
1, 0.8749, 312, 0.82460761, 0.09016990, 0.56133145, 0.84124219, -5.39141655, 1.58245611, 0.00000000, 0.00000000, 0.00000000, -171.18190002, 54.35515213, -152.74652100, -0.45869127, -0.17483984, 0.87026823, 0.04082561, -0.01196295, -0.00083335, 0.01453984, 0.00000000, 0.00000000, 0.00000000, 0.00000000
1, 0.8774, 313, 0.82267052, 0.09016939, 0.55985469, 0.84066015, -5.18237877, 1.58342230, 0.00000000, 0.00000000, 0.00000000, -171.18247986, 54.36856842, -152.74981689, -0.45879143, -0.17479673, 0.87022305, 0.04084525, -0.00988942, -0.00086787, 0.01582950, 0.00000000, 0.00000000, 0.00000000, 0.00000000
1, 0.8799, 314, 0.82412452, 0.09017069, 0.56084043, 0.77009672, -5.25245523, 1.58221769, 0.00000000, 0.00000000, 0.00000000, -171.18319702, 54.38214493, -152.75306702, -0.45889270, -0.17475431, 0.87017721, 0.04086650, -0.01120538, -0.00090593, 0.01465446, 0.00000000, 0.00000000, 0.00000000, 0.00000000
1, 0.8824, 315, 0.82411981, 0.09016704, 0.56132746, 0.91158170, -5.39162874, 1.65310133, 0.00000000, 0.00000000, 0.00000000, -171.18373108, 54.39609146, -152.75653076, -0.45899710, -0.17470899, 0.87013036, 0.04088630, -0.01105893, -0.00093803, 0.01397258, 0.00000000, 0.00000000, 0.00000000, 0.00000000
1, 0.8849, 316, 0.82117891, 0.09013886, 0.56276470, 0.83940649, -5.18420506, 1.79270959, 0.00000000, 0.00000000, 0.00000000, -171.18504333, 54.40958405, -152.76074219, -0.45909709, -0.17466193, 0.87008607, 0.04090808, -0.00798088, -0.00095239, 0.01234818, 0.00000000, 0.00000000, 0.00000000, 0.00000000
1, 0.8874, 317, 0.82850641, 0.09165566, 0.56039631, 0.48481363, -5.04744005, 1.85870337, 0.00000000, 0.00000000, 0.00000000, -171.18754578, 54.42277527, -152.76530457, -0.45919302, -0.17461728, 0.87004292, 0.04093672, -0.01517457, -0.00252300, 0.01453549, 0.00000000, 0.00000000, 0.00000000, 0.00000000
1, 0.8899, 318, 0.82704407, 0.09311351, 0.55893093, 0.27337724, -5.04741192, 1.71653080, 0.00000000, 0.00000000, 0.00000000, -171.18327332, 54.44834137, -152.76199341, -0.45938891, -0.17458642, 0.86994416, 0.04097169, -0.01345265, -0.00399356, 0.01563537, 0.00000000, 0.00000000, 0.00000000, 0.00000000
1, 0.8924, 319, 0.82606626, 0.09017485, 0.56183022, 0.34313470, -4.83858681, 1.78814185, 0.00000000, 0.00000000, 0.00000000, -171.18600464, 54.46099091, -152.76641846, -0.45948043, -0.17454472, 0.86990279, 0.04100152, -0.01234651, -0.00110978, 0.01256299, 0.00000000, 0.00000000, 0.00000000, 0.00000000
1, 0.8949, 320, 0.83090746, 0.09115195, 0.56479645, 0.55540687, -4.83739662, 1.79078948, 0.00000000, 0.00000000, 0.00000000, -171.18821716, 54.47362137, -152.77084351, -0.45957276, -0.17450084, 0.86986160, 0.04102736, -0.01705957, -0.00213654, 0.00942284, 0.00000000, 0.00000000, 0.00000000, 0.00000000
1, 0.8974, 321, 0.83478451, 0.09506352, 0.56387365, 0.48345554, -4.55968618, 1.86095774, 0.00000000, 0.00000000, 0.00000000, -171.19099426, 54.48560333, -152.77574158, -0.45965949, -0.17445660, 0.86982340, 0.04105420, -0.02081514, -0.00610207, 0.01018185, 0.00000000, 0.00000000, 0.00000000, 0.00000000
1, 0.8999, 322, 0.82895225, 0.09211446, 0.56429857, 0.26937753, -4.21369791, 1.99944508, 0.00000000, 0.00000000, 0.00000000, -171.19499207, 54.49678040, -152.78146362, -0.45973867, -0.17441219, 0.86978900, 0.04108518, -0.01486957, -0.00321728, 0.00960624, 0.00000000, 0.00000000, 0.00000000, 0.00000000
1, 0.9024, 323, 0.82896018, 0.09016648, 0.56526279, 0.12666883, -3.93638396, 2.06873083, 0.00000000, 0.00000000, 0.00000000, -171.19972229, 54.50728989, -152.78768921, -0.45981199, -0.17436814, 0.86975753, 0.04111850, -0.01477099, -0.00133961, 0.00850165, 0.00000000, 0.00000000, 0.00000000, 0.00000000
1, 0.9049, 324, 0.83190036, 0.08921701, 0.56479454, 0.05410560, -3.58960295, 2.20898318, 0.00000000, 0.00000000, 0.00000000, -171.20532227, 54.51701355, -152.79472351, -0.45987830, -0.17432246, 0.86972988, 0.04115328, -0.01761264, -0.00046726, 0.00884211, 0.00000000, 0.00000000, 0.00000000, 0.00000000
1, 0.9074, 325, 0.82993257, 0.09212384, 0.56381953, -0.08924488, -3.38318515, 2.41747189, 0.00000000, 0.00000000, 0.00000000, -171.21211243, 54.52627945, -152.80278015, -0.45993999, -0.17427444, 0.86970508, 0.04119210, -0.01555097, -0.00346223, 0.00969738, 0.00000000, 0.00000000, 0.00000000, 0.00000000
1, 0.9099, 326, 0.83040303, 0.09406737, 0.56383324, -0.15994254, -3.10364747, 2.27835202, 0.00000000, 0.00000000, 0.00000000, -171.21875000, 54.53482056, -152.81044006, -0.45999622, -0.17423004, 0.86968249, 0.04122979, -0.01593488, -0.00549072, 0.00957394, 0.00000000, 0.00000000, 0.00000000, 0.00000000
1, 0.9124, 327, 0.82654363, 0.08870396, 0.56426173, -0.37340868, -2.82673025, 2.34675527, 0.00000000, 0.00000000, 0.00000000, -171.22630310, 54.54269409, -152.81857300, -0.46004632, -0.17418671, 0.86966270, 0.04127117, -0.01199580, -0.00022008, 0.00904644, 0.00000000, 0.00000000, 0.00000000, 0.00000000
1, 0.9149, 328, 0.82749718, 0.09064671, 0.56476641, -0.44471827, -2.47812247, 2.27772021, 0.00000000, 0.00000000, 0.00000000, -171.23399353, 54.54969025, -152.82664490, -0.46008959, -0.17414573, 0.86964607, 0.04131189, -0.01287854, -0.00225489, 0.00845546, 0.00000000, 0.00000000, 0.00000000, 0.00000000
1, 0.9174, 329, 0.82802731, 0.09068245, 0.56038749, -0.44671813, -2.06126547, 2.41917777, 0.00000000, 0.00000000, 0.00000000, -171.24241638, 54.55570221, -152.83560181, -0.46012482, -0.17410246, 0.86963415, 0.04135248, -0.01334781, -0.00238781, 0.01276273, 0.00000000, 0.00000000, 0.00000000, 0.00000000
1, 0.9199, 330, 0.82655406, 0.09017772, 0.56183416, -0.30459145, -2.12954259, 2.35085821, 0.00000000, 0.00000000, 0.00000000, -171.25018311, 54.56187439, -152.84422302, -0.46016195, -0.17405899, 0.86962140, 0.04138995, -0.01181209, -0.00197425, 0.01124156, 0.00000000, 0.00000000, 0.00000000, 0.00000000
1, 0.9224, 331, 0.82512146, 0.08726177, 0.56132072, -0.37670696, -1.64218533, 2.35223007, 0.00000000, 0.00000000, 0.00000000, -171.25842285, 54.56682205, -152.85316467, -0.46018955, -0.17401665, 0.86961347, 0.04142694, -0.01032943, 0.00084866, 0.01169807, 0.00000000, 0.00000000, 0.00000000, 0.00000000
1, 0.9249, 332, 0.82415420, 0.08579689, 0.56179243, -0.44946423, -1.22572494, 2.49280429, 0.00000000, 0.00000000, 0.00000000, -171.26754761, 54.57080460, -152.86297607, -0.46020883, -0.17397277, 0.86961019, 0.04146515, -0.00932199, 0.00221368, 0.01118446, 0.00000000, 0.00000000, 0.00000000, 0.00000000
1, 0.9274, 333, 0.82365268, 0.08627187, 0.56276488, -0.52099764, -0.94740534, 2.49321008, 0.00000000, 0.00000000, 0.00000000, -171.27699280, 54.57408142, -152.87298584, -0.46022263, -0.17392986, 0.86960977, 0.04150366, -0.00878716, 0.00163704, 0.01018029, 0.00000000, 0.00000000, 0.00000000, 0.00000000
1, 0.9299, 334, 0.82315981, 0.08577654, 0.56373250, -0.52077377, -0.87711734, 2.42376995, 0.00000000, 0.00000000, 0.00000000, -171.28625488, 54.57717514, -152.88275146, -0.46023503, -0.17388830, 0.86960959, 0.04154120, -0.00826317, 0.00203317, 0.00918353, 0.00000000, 0.00000000, 0.00000000, 0.00000000
1, 0.9324, 335, 0.82265323, 0.08575906, 0.56567651, -0.52132595, -0.52811319, 2.35561752, 0.00000000, 0.00000000, 0.00000000, -171.29547119, 54.57936096, -152.89245605, -0.46024093, -0.17384836, 0.86961275, 0.04157675, -0.00773436, 0.00195386, 0.00722271, 0.00000000, 0.00000000, 0.00000000, 0.00000000
1, 0.9349, 336, 0.82073307, 0.08332906, 0.56467450, -0.45279235, -0.18114735, 2.56739807, 0.00000000, 0.00000000, 0.00000000, -171.30541992, 54.58078003, -152.90327454, -0.46024036, -0.17380404, 0.86962038, 0.04161181, -0.00579983, 0.00428124, 0.00822014, 0.00000000, 0.00000000, 0.00000000, 0.00000000
1, 0.9374, 337, 0.81876242, 0.08232534, 0.56757575, -0.45276248, -0.04118036, 2.49827909, 0.00000000, 0.00000000, 0.00000000, -171.31521606, 54.58182907, -152.91392517, -0.46023715, -0.17376114, 0.86962903, 0.04164564, -0.00381857, 0.00518482, 0.00531912, 0.00000000, 0.00000000, 0.00000000, 0.00000000
1, 0.9399, 338, 0.81876642, 0.08135135, 0.56805784, -0.38394526, 0.65600735, 2.50238228, 0.00000000, 0.00000000, 0.00000000, -171.33634949, 54.58959579, -152.93325806, -0.46026999, -0.17368752, 0.86962157, 0.04174471, -0.00374401, 0.00593074, 0.00476003, 0.00000000, 0.00000000, 0.00000000, 0.00000000
1, 0.9424, 339, 0.81486940, 0.08230970, 0.56657022, -0.31354606, 0.93572915, 2.43479085, 0.00000000, 0.00000000, 0.00000000, -171.34609985, 54.58820724, -152.94425964, -0.46024883, -0.17364532, 0.86963987, 0.04177156, 0.00013894, 0.00487798, 0.00628215, 0.00000000, 0.00000000, 0.00000000, 0.00000000
1, 0.9449, 340, 0.81436324, 0.08278104, 0.56802964, -0.17241928, 1.07588065, 2.43720007, 0.00000000, 0.00000000, 0.00000000, -171.35557556, 54.58645248, -152.95535278, -0.46022552, -0.17360179, 0.86965972, 0.04179523, 0.00062746, 0.00431566, 0.00486165, 0.00000000, 0.00000000, 0.00000000, 0.00000000
1, 0.9474, 341, 0.81388408, 0.08180784, 0.56802082, -0.17319535, 1.35459721, 2.43848825, 0.00000000, 0.00000000, 0.00000000, -171.36520386, 54.58403015, -152.96661377, -0.46019700, -0.17355852, 0.86968249, 0.04181787, 0.00108206, 0.00519784, 0.00491929, 0.00000000, 0.00000000, 0.00000000, 0.00000000
1, 0.9499, 342, 0.81339085, 0.08082367, 0.56947297, -0.17413558, 1.84295976, 2.37098002, 0.00000000, 0.00000000, 0.00000000, -171.37484741, 54.58036804, -152.97793579, -0.46015915, -0.17351694, 0.86970967, 0.04183800, 0.00153822, 0.00609335, 0.00353330, 0.00000000, 0.00000000, 0.00000000, 0.00000000
1, 0.9524, 343, 0.81237334, 0.08127387, 0.57336336, -0.24508701, 1.91224205, 2.37041950, 0.00000000, 0.00000000, 0.00000000, -171.38470459, 54.57651901, -152.98928833, -0.46011984, -0.17347619, 0.86973774, 0.04185921, 0.00251681, 0.00555271, -0.00028825, 0.00000000, 0.00000000, 0.00000000, 0.00000000
1, 0.9549, 344, 0.81185764, 0.08173790, 0.57579678, -0.45755318, 1.98073149, 2.36809373, 0.00000000, 0.00000000, 0.00000000, -171.39511108, 54.57250595, -153.00064087, -0.46007836, -0.17343765, 0.86976618, 0.04188417, 0.00299203, 0.00499304, -0.00264943, 0.00000000, 0.00000000, 0.00000000, 0.00000000
1, 0.9574, 345, 0.81087595, 0.07977323, 0.57821405, -0.52947468, 2.39840889, 2.36914349, 0.00000000, 0.00000000, 0.00000000, -171.40592957, 54.56747437, -153.01229858, -0.46002862, -0.17340019, 0.86979860, 0.04190891, 0.00392264, 0.00686023, -0.00497949, 0.00000000, 0.00000000, 0.00000000, 0.00000000
1, 0.9599, 346, 0.80939412, 0.08023883, 0.57966554, -0.74152291, 2.46750712, 2.29705501, 0.00000000, 0.00000000, 0.00000000, -171.41705322, 54.56223297, -153.02368164, -0.45997697, -0.17336631, 0.86983150, 0.04193671, 0.00535143, 0.00629444, -0.00634051, 0.00000000, 0.00000000, 0.00000000, 0.00000000
1, 0.9624, 347, 0.80791521, 0.07826399, 0.58305287, -0.81305641, 2.74582648, 2.29746079, 0.00000000, 0.00000000, 0.00000000, -171.42849731, 54.55630493, -153.03523254, -0.45991963, -0.17333338, 0.86986691, 0.04196480, 0.00677037, 0.00816727, -0.00962710, 0.00000000, 0.00000000, 0.00000000, 0.00000000
1, 0.9649, 348, 0.80642396, 0.07872228, 0.58547837, -0.95454139, 2.88500047, 2.22657752, 0.00000000, 0.00000000, 0.00000000, -171.44013977, 54.54999924, -153.04658508, -0.45985925, -0.17330334, 0.86990339, 0.04199435, 0.00819779, 0.00760595, -0.01194644, 0.00000000, 0.00000000, 0.00000000, 0.00000000
1, 0.9674, 349, 0.80741662, 0.07629854, 0.58596104, -1.02568662, 3.02396226, 2.22633886, 0.00000000, 0.00000000, 0.00000000, -171.45199585, 54.54334641, -153.05801392, -0.45979595, -0.17327416, 0.86994117, 0.04202472, 0.00713784, 0.00992491, -0.01231784, 0.00000000, 0.00000000, 0.00000000, 0.00000000
1, 0.9699, 350, 0.80447102, 0.07626671, 0.58788526, -1.16739547, 3.09284759, 2.22489595, 0.00000000, 0.00000000, 0.00000000, -171.46426392, 54.53653336, -153.06947327, -0.45973080, -0.17324647, 0.86997956, 0.04205750, 0.01001441, 0.00984845, -0.01412773, 0.00000000, 0.00000000, 0.00000000, 0.00000000
1, 0.9724, 351, 0.80494761, 0.07381818, 0.59128588, -1.38005579, 3.23101592, 2.22289228, 0.00000000, 0.00000000, 0.00000000, -171.47711182, 54.52936172, -153.08100891, -0.45966223, -0.17322110, 0.87001914, 0.04209378, 0.00946522, 0.01218342, -0.01740832, 0.00000000, 0.00000000, 0.00000000, 0.00000000
1, 0.9749, 352, 0.80296427, 0.07475876, 0.59370995, -1.38002598, 3.37098312, 2.15377378, 0.00000000, 0.00000000, 0.00000000, -171.48979187, 54.52183151, -153.09233093, -0.45959106, -0.17319717, 0.87005985, 0.04212883, 0.01137227, 0.01113177, -0.01970745, 0.00000000, 0.00000000, 0.00000000, 0.00000000
1, 0.9774, 353, 0.80443555, 0.07281940, 0.59468597, -1.59204435, 3.58004808, 2.01256728, 0.00000000, 0.00000000, 0.00000000, -171.50259399, 54.51372528, -153.10319519, -0.45951524, -0.17317821, 0.87010187, 0.04216570, 0.00981885, 0.01295974, -0.02055025, 0.00000000, 0.00000000, 0.00000000, 0.00000000
1, 0.9799, 354, 0.80103874, 0.07134747, 0.59416401, -1.80451047, 3.64853644, 2.01024175, 0.00000000, 0.00000000, 0.00000000, -171.51597595, 54.50543976, -153.11407471, -0.45943731, -0.17316149, 0.87014437, 0.04220633, 0.01313174, 0.01431504, -0.01989192, 0.00000000, 0.00000000, 0.00000000, 0.00000000
1, 0.9824, 355, 0.80054659, 0.07182977, 0.59416252, -1.87423790, 3.57967901, 1.86951232, 0.00000000, 0.00000000, 0.00000000, -171.52899170, 54.49728394, -153.12429810, -0.45936054, -0.17314808, 0.87018555, 0.04224712, 0.01354123, 0.01371935, -0.01975632, 0.00000000, 0.00000000, 0.00000000, 0.00000000
1, 0.9849, 356, 0.79908645, 0.06986955, 0.59560186, -2.01514101, 3.50981522, 1.79766250, 0.00000000, 0.00000000, 0.00000000, -171.54206848, 54.48926926, -153.13417053, -0.45928463, -0.17313738, 0.87022567, 0.04229014, 0.01492012, 0.01556521, -0.02106345, 0.00000000, 0.00000000, 0.00000000, 0.00000000
1, 0.9874, 357, 0.79959196, 0.06842057, 0.59511149, -2.22718906, 3.57891321, 1.72557449, 0.00000000, 0.00000000, 0.00000000, -171.55545044, 54.48104095, -153.14379883, -0.45920670, -0.17313024, 0.87026602, 0.04233619, 0.01433117, 0.01689705, -0.02043772, 0.00000000, 0.00000000, 0.00000000, 0.00000000
1, 0.9899, 358, 0.79619944, 0.06646349, 0.59458715, -2.36828613, 3.57872844, 1.65404701, 0.00000000, 0.00000000, 0.00000000, -171.59048462, 54.45880508, -153.17282104, -0.45899862, -0.17308302, 0.87038010, 0.04243969, 0.01749814, 0.01854892, -0.01954890, 0.00000000, 0.00000000, 0.00000000, 0.00000000
1, 0.9924, 359, 0.79865289, 0.06697761, 0.59266138, -2.50796533, 3.37072444, 1.44202828, 0.00000000, 0.00000000, 0.00000000, -171.60348511, 54.45099640, -153.18107605, -0.45892379, -0.17308386, 0.87041700, 0.04248903, 0.01496548, 0.01792065, -0.01749403, 0.00000000, 0.00000000, 0.00000000, 0.00000000
1, 0.9949, 360, 0.79768991, 0.06502756, 0.59313065, -2.50654745, 3.16290474, 1.30153728, 0.00000000, 0.00000000, 0.00000000, -171.61585999, 54.44364166, -153.18859863, -0.45885307, -0.17308716, 0.87045127, 0.04253771, 0.01585388, 0.01976157, -0.01784182, 0.00000000, 0.00000000, 0.00000000, 0.00000000
1, 0.9974, 361, 0.79919165, 0.06604302, 0.58827758, -2.71846128, 2.88238955, 1.36736381, 0.00000000, 0.00000000, 0.00000000, -171.62886047, 54.43702316, -153.19621277, -0.45878673, -0.17309107, 0.87048268, 0.04259213, 0.01428485, 0.01862932, -0.01287628, 0.00000000, 0.00000000, 0.00000000, 0.00000000
1, 0.9999, 362, 0.79871249, 0.06506983, 0.58826876, -2.78741264, 2.53481483, 1.22534597, 0.00000000, 0.00000000, 0.00000000, -171.64135742, 54.43119431, -153.20301819, -0.45872694, -0.17309804, 0.87051010, 0.04264776, 0.01470488, 0.01948902, -0.01276720, 0.00000000, 0.00000000, 0.00000000, 0.00000000
1, 1.0024, 363, 0.79921371, 0.06410602, 0.58778077, -2.85639429, 2.04727340, 1.15244663, 0.00000000, 0.00000000, 0.00000000, -171.65353394, 54.42654800, -153.20918274, -0.45867619, -0.17310664, 0.87053227, 0.04270582, 0.01415652, 0.02034017, -0.01219600, 0.00000000, 0.00000000, 0.00000000, 0.00000000
1, 1.0049, 364, 0.79874867, 0.06314378, 0.58631104, -2.92637563, 1.76816022, 1.15027595, 0.00000000, 0.00000000, 0.00000000, -171.66571045, 54.42258072, -153.21517944, -0.45863047, -0.17311573, 0.87055159, 0.04276622, 0.01458126, 0.02118811, -0.01065284, 0.00000000, 0.00000000, 0.00000000, 0.00000000
1, 1.0074, 365, 0.80168885, 0.06219431, 0.58584279, -2.92537546, 1.55973160, 1.07954729, 0.00000000, 0.00000000, 0.00000000, -171.67755127, 54.41912460, -153.22074890, -0.45858878, -0.17312595, 0.87056851, 0.04282670, 0.01160592, 0.02202577, -0.01011842, 0.00000000, 0.00000000, 0.00000000, 0.00000000
1, 1.0099, 366, 0.80266124, 0.06415167, 0.58439952, -2.99307346, 1.21398330, 0.72824216, 0.00000000, 0.00000000, 0.00000000, -171.68815613, 54.41638184, -153.22459412, -0.45855379, -0.17314322, 0.87058073, 0.04288625, 0.01060575, 0.01996740, -0.00862104, 0.00000000, 0.00000000, 0.00000000, 0.00000000
1, 1.0124, 367, 0.80021787, 0.06462250, 0.58438224, -3.06163692, 0.72705054, 0.58558035, 0.00000000, 0.00000000, 0.00000000, -171.69821167, 54.41480255, -153.22753906, -0.45852783, -0.17316340, 0.87058723, 0.04294751, 0.01303298, 0.01939887, -0.00856674, 0.00000000, 0.00000000, 0.00000000, 0.00000000
1, 1.0149, 368, 0.80216938, 0.06512279, 0.58391351, -3.06099510, 0.79794735, 0.44637743, 0.00000000, 0.00000000, 0.00000000, -171.70780945, 54.41299057, -153.22993469, -0.45850074, -0.17318630, 0.87059414, 0.04300710, 0.01106310, 0.01880583, -0.00805843, 0.00000000, 0.00000000, 0.00000000, 0.00000000
1, 1.0174, 369, 0.80318010, 0.06173602, 0.58341724, -3.20064449, 0.72991002, 0.16524039, 0.00000000, 0.00000000, 0.00000000, -171.71675110, 54.41123199, -153.23107910, -0.45847458, -0.17321585, 0.87059897, 0.04306678, 0.01003456, 0.02210630, -0.00752467, 0.00000000, 0.00000000, 0.00000000, 0.00000000
1, 1.0199, 370, 0.80466086, 0.05980396, 0.58341932, -3.19819713, 0.45362884, -0.11509767, 0.00000000, 0.00000000, 0.00000000, -171.72457886, 54.41007233, -153.23088074, -0.45845398, -0.17325047, 0.87060010, 0.04312466, 0.00854206, 0.02396212, -0.00749886, 0.00000000, 0.00000000, 0.00000000, 0.00000000
1, 1.0224, 371, 0.80662251, 0.06128920, 0.58100754, -3.19739127, 0.31487948, -0.18550421, 0.00000000, 0.00000000, 0.00000000, -171.73208618, 54.40921783, -153.23028564, -0.45843607, -0.17328626, 0.87059957, 0.04318235, 0.00657171, 0.02240308, -0.00506425, 0.00000000, 0.00000000, 0.00000000, 0.00000000
1, 1.0249, 372, 0.81153774, 0.06085829, 0.57763571, -2.98334265, -0.17107540, -0.25487331, 0.00000000, 0.00000000, 0.00000000, -171.73858643, 54.40955734, -153.22909546, -0.45842829, -0.17332077, 0.87059408, 0.04323711, 0.00165993, 0.02276806, -0.00168753, 0.00000000, 0.00000000, 0.00000000, 0.00000000
1, 1.0274, 373, 0.81447071, 0.06283444, 0.57523417, -2.91116762, -0.37849849, -0.39448181, 0.00000000, 0.00000000, 0.00000000, -171.74430847, 54.41035080, -153.22717285, -0.45842484, -0.17335702, 0.87058604, 0.04328989, -0.00126499, 0.02073274, 0.00071114, 0.00000000, 0.00000000, 0.00000000, 0.00000000
1, 1.0299, 374, 0.81840020, 0.06141284, 0.57379746, -3.19400334, -0.44976425, -0.39833412, 0.00000000, 0.00000000, 0.00000000, -171.75068665, 54.41132355, -153.22520447, -0.45842171, -0.17339611, 0.87057698, 0.04334827, -0.00518459, 0.02208822, 0.00214344, 0.00000000, 0.00000000, 0.00000000, 0.00000000
1, 1.0324, 375, 0.81883228, 0.06234950, 0.57867616, -3.40691710, -0.52185100, -0.26177895, 0.00000000, 0.00000000, 0.00000000, -171.75804138, 54.41251755, -153.22377014, -0.45841900, -0.17343467, 0.87056756, 0.04341234, -0.00560457, 0.02107525, -0.00274134, 0.00000000, 0.00000000, 0.00000000, 0.00000000
1, 1.0349, 376, 0.81883228, 0.06234950, 0.57867616, -3.40691710, -0.52185100, -0.26177895, 0.00000000, 0.00000000, 0.00000000, -171.76538086, 54.41371536, -153.22233582, -0.45841625, -0.17347324, 0.87055814, 0.04347640, -0.00559241, 0.02099894, -0.00274742, 0.00000000, 0.00000000, 0.00000000, 0.00000000
1, 1.0374, 377, 0.82511050, 0.06575737, 0.58215344, -3.26267076, -0.44711691, -0.74802911, 0.00000000, 0.00000000, 0.00000000, -171.77072144, 54.41456604, -153.21887207, -0.45841312, -0.17351966, 0.87054771, 0.04353258, -0.01186198, 0.01753564, -0.00622875, 0.00000000, 0.00000000, 0.00000000, 0.00000000
1, 1.0399, 378, 0.82511050, 0.06575737, 0.58215344, -3.26267076, -0.44711691, -0.74802911, 0.00000000, 0.00000000, 0.00000000, -171.80624390, 54.41916656, -153.24006653, -0.45840186, -0.17349404, 0.87054902, 0.04372716, -0.01181525, 0.01716933, -0.00624210, 0.00000000, 0.00000000, 0.00000000, 0.00000000
1, 1.0424, 379, 0.82950461, 0.06480920, 0.58267105, -3.19382405, 0.39003780, -0.81304443, 0.00000000, 0.00000000, 0.00000000, -171.81161499, 54.41790771, -153.23684692, -0.45838311, -0.17354180, 0.87054682, 0.04377821, -0.01622212, 0.01806608, -0.00673419, 0.00000000, 0.00000000, 0.00000000, 0.00000000
1, 1.0449, 380, 0.82950461, 0.06480920, 0.58267105, -3.19382405, 0.39003780, -0.81304443, 0.00000000, 0.00000000, 0.00000000, -171.81698608, 54.41665649, -153.23362732, -0.45836437, -0.17358954, 0.87054461, 0.04382927, -0.01623488, 0.01801466, -0.00670880, 0.00000000, 0.00000000, 0.00000000, 0.00000000
1, 1.0474, 381, 0.82950538, 0.06578683, 0.58170193, -3.19537640, 0.94747055, -0.81046802, 0.00000000, 0.00000000, 0.00000000, -171.82263184, 54.41402435, -153.23075867, -0.45833504, -0.17363779, 0.87054795, 0.04387826, -0.01626236, 0.01698548, -0.00569451, 0.00000000, 0.00000000, 0.00000000, 0.00000000
1, 1.0499, 382, 0.82950538, 0.06578683, 0.58170193, -3.19537640, 0.94747055, -0.81046802, 0.00000000, 0.00000000, 0.00000000, -171.82829285, 54.41138077, -153.22789001, -0.45830572, -0.17368604, 0.87055129, 0.04392726, -0.01628918, 0.01693391, -0.00564933, 0.00000000, 0.00000000, 0.00000000, 0.00000000
1, 1.0524, 383, 0.82761341, 0.06337877, 0.57777810, -2.84255910, 1.29784930, -0.80444497, 0.00000000, 0.00000000, 0.00000000, -171.83326721, 54.40789795, -153.22528076, -0.45827109, -0.17373097, 0.87055850, 0.04396828, -0.01443261, 0.01929906, -0.00166923, 0.00000000, 0.00000000, 0.00000000, 0.00000000
1, 1.0549, 384, 0.82809287, 0.06484079, 0.57730234, -2.70185041, 1.43739212, -0.73227334, 0.00000000, 0.00000000, 0.00000000, -171.83819580, 54.40407562, -153.22303772, -0.45823419, -0.17377326, 0.87056744, 0.04400682, -0.01495093, 0.01779509, -0.00113273, 0.00000000, 0.00000000, 0.00000000, 0.00000000
1, 1.0574, 385, 0.82712668, 0.06484237, 0.57632053, -2.70165634, 1.36771309, -0.73259538, 0.00000000, 0.00000000, 0.00000000, -171.84309387, 54.40043259, -153.22074890, -0.45819867, -0.17381550, 0.87057573, 0.04404563, -0.01402176, 0.01775159, -0.00009263, 0.00000000, 0.00000000, 0.00000000, 0.00000000
1, 1.0599, 386, 0.82612103, 0.06872160, 0.57584524, -2.63131690, 1.36750114, -0.66195029, 0.00000000, 0.00000000, 0.00000000, -171.84805298, 54.39680862, -153.21878052, -0.45816335, -0.17385569, 0.87058437, 0.04408380, -0.01305288, 0.01382968, 0.00044066, 0.00000000, 0.00000000, 0.00000000, 0.00000000
1, 1.0624, 387, 0.82368207, 0.06870726, 0.57582551, -2.63128710, 1.50746799, -0.73106873, 0.00000000, 0.00000000, 0.00000000, -171.85285950, 54.39282227, -153.21658325, -0.45812544, -0.17389733, 0.87059414, 0.04412075, -0.01065445, 0.01380378, 0.00052339, 0.00000000, 0.00000000, 0.00000000, 0.00000000
1, 1.0649, 388, 0.82271081, 0.06821636, 0.57581514, -2.56133533, 1.64661396, -0.65977955, 0.00000000, 0.00000000, 0.00000000, -171.85780334, 54.38851547, -153.21476746, -0.45808509, -0.17393704, 0.87060565, 0.04415656, -0.00972694, 0.01425366, 0.00060135, 0.00000000, 0.00000000, 0.00000000, 0.00000000
1, 1.0674, 389, 0.81977069, 0.06916583, 0.57628334, -2.49080205, 1.57672286, -0.58945656, 0.00000000, 0.00000000, 0.00000000, -171.86276245, 54.38439178, -153.21322632, -0.45804626, -0.17397465, 0.87061679, 0.04419199, -0.00682873, 0.01326246, 0.00019807, 0.00000000, 0.00000000, 0.00000000, 0.00000000
1, 1.0699, 390, 0.81832534, 0.06819421, 0.57529259, -2.34945154, 1.78716242, -0.65648770, 0.00000000, 0.00000000, 0.00000000, -171.86726379, 54.37974167, -153.21151733, -0.45800403, -0.17401233, 0.87062991, 0.04422328, -0.00543064, 0.01419827, 0.00126070, 0.00000000, 0.00000000, 0.00000000, 0.00000000
1, 1.0724, 391, 0.81682140, 0.07059681, 0.57724094, -2.20777225, 1.57830954, -0.58592623, 0.00000000, 0.00000000, 0.00000000, -171.87152100, 54.37563705, -153.20999146, -0.45796624, -0.17404704, 0.87064129, 0.04425336, -0.00396842, 0.01176091, -0.00062376, 0.00000000, 0.00000000, 0.00000000, 0.00000000
1, 1.0749, 392, 0.81488323, 0.06912984, 0.57721782, -2.13640332, 1.50963581, -0.65512818, 0.00000000, 0.00000000, 0.00000000, -171.87535095, 54.37166595, -153.20811462, -0.45793009, -0.17408228, 0.87065178, 0.04428167, -0.00207067, 0.01319737, -0.00053954, 0.00000000, 0.00000000, 0.00000000, 0.00000000
1, 1.0774, 393, 0.81438643, 0.06960849, 0.57770336, -2.20635462, 1.37048984, -0.72641742, 0.00000000, 0.00000000, 0.00000000, -171.87904358, 54.36802292, -153.20587158, -0.45789641, -0.17411944, 0.87066054, 0.04431111, -0.00161088, 0.01268898, -0.00096858, 0.00000000, 0.00000000, 0.00000000, 0.00000000
