SensorId, TimeStamp (s), FrameNumber, AccX (g), AccY (g), AccZ (g), GyroX (deg/s), GyroY (deg/s), GyroZ (deg/s), MagX (uT), MagY (uT), MagZ (uT), EulerX (deg), EulerY (deg), EulerZ (deg), QuatW, QuatX, QuatY, QuatZ, LinAccX (g), LinAccY (g), LinAccZ (g), Pressure (kPa), Altitude (m), Temperature (degC), HeaveMotion (m)
1, -0.0000, 0, -0.04201304, -0.07715151, -0.98738056, -2.15562677, 1.45098615, 2.38428187, -52.49926758, 37.79596710, -73.07804871, 4.76188850, -2.18555999, -101.46802521, 0.63287359, -0.01153623, 0.04421798, 0.77290535, 0.00387709, -0.00580306, -0.00844282, 0.00000000, 0.00000000, 0.00000000, 0.00000000
1, 0.0025, 1, -0.04457422, -0.08229642, -0.98267889, -2.08695889, 1.44833887, 2.73397708, -52.49926758, 37.79596710, -73.07804871, 4.75640059, -2.18251872, -101.46090698, 0.63292158, -0.01152920, 0.04416348, 0.77286923, 0.00649131, -0.00056292, -0.01315439, 0.00000000, 0.00000000, 0.00000000, 0.00000000
1, 0.0050, 2, -0.04496697, -0.08537288, -0.97709686, -2.01767898, 1.37662125, 3.01358747, -52.49926758, 37.79596710, -73.07804871, 4.75105906, -2.17971373, -101.45310974, 0.63297427, -0.01152164, 0.04411121, 0.77282923, 0.00693297, 0.00260621, -0.01874608, 0.00000000, 0.00000000, 0.00000000, 0.00000000
1, 0.0075, 3, -0.04754451, -0.08882064, -0.97226477, -1.95042872, 1.58179379, 3.50377345, -52.49926758, 37.79596710, -73.07804871, 4.74583864, -2.17649817, -101.44404602, 0.63303536, -0.01151801, 0.04405736, 0.77278233, 0.00956660, 0.00614452, -0.02358782, 0.00000000, 0.00000000, 0.00000000, 0.00000000
1, 0.0100, 4, -0.04471622, -0.09367134, -0.97019690, -1.60117877, 1.85701418, 4.13733673, -52.17772675, 37.62057877, -72.61034393, 4.74143028, -2.17272711, -101.43334198, 0.63310730, -0.01152323, 0.04400576, 0.77272624, 0.00680409, 0.01107165, -0.02566451, 0.00000000, 0.00000000, 0.00000000, 0.00000000
1, 0.0125, 5, -0.04261450, -0.09791166, -0.96922749, -1.25028718, 1.99470294, 4.56096888, -52.17772675, 37.62057877, -72.61034393, 4.73785782, -2.16869950, -101.42156982, 0.63318640, -0.01153520, 0.04395828, 0.77266395, 0.00477260, 0.01537383, -0.02664167, 0.00000000, 0.00000000, 0.00000000, 0.00000000
1, 0.0150, 6, -0.04467129, -0.09803326, -0.97082764, -0.54725045, 2.27190709, 5.19894505, -52.17772675, 37.62057877, -72.61034393, 4.73598242, -2.16411257, -101.40813446, 0.63327634, -0.01156096, 0.04391898, 0.77259207, 0.00690939, 0.01552779, -0.02504725, 0.00000000, 0.00000000, 0.00000000, 0.00000000
1, 0.0175, 7, -0.05065735, -0.09319116, -0.97426033, -0.12106444, 2.13675523, 4.99430847, -52.17772675, 37.62057877, -72.61034393, 4.73519278, -2.15981960, -101.39524841, 0.63336265, -0.01159051, 0.04388868, 0.77252275, 0.01297032, 0.01069916, -0.02161861, 0.00000000, 0.00000000, 0.00000000, 0.00000000
1, 0.0200, 8, -0.05260741, -0.08843847, -0.97875690, 0.37916234, 1.72693622, 4.37069225, -52.17772675, 37.62057877, -72.61034393, 4.73571777, -2.15641952, -101.38398743, 0.63343787, -0.01162067, 0.04387232, 0.77246153, 0.01497969, 0.00593717, -0.01712346, 0.00000000, 0.00000000, 0.00000000, 0.00000000
1, 0.0225, 9, -0.05306865, -0.08744360, -0.98240840, 0.66808695, 0.96753210, 3.74281716, -52.61619186, 38.32212830, -72.99035645, 4.73702955, -2.15478182, -101.37445068, 0.63350171, -0.01164263, 0.04387115, 0.77240890, 0.01546949, 0.00491942, -0.01347113, 0.00000000, 0.00000000, 0.00000000, 0.00000000
1, 0.0250, 10, -0.04976365, -0.08497193, -0.98590016, 0.88731378, 0.27923670, 2.90509510, -52.61619186, 38.32212830, -72.99035645, 4.73897314, -2.15468574, -101.36715698, 0.63355064, -0.01165682, 0.04388298, 0.77236784, 0.01216616, 0.00241396, -0.00997663, 0.00000000, 0.00000000, 0.00000000, 0.00000000
1, 0.0275, 11, -0.05106860, -0.08482929, -0.98980623, 0.89382082, -0.55082452, 2.20360589, -52.61619186, 38.32212830, -72.99035645, 4.74100542, -2.15651321, -101.36177826, 0.63358700, -0.01165778, 0.04390622, 0.77233666, 0.01343924, 0.00223608, -0.00606650, 0.00000000, 0.00000000, 0.00000000, 0.00000000
1, 0.0300, 12, -0.05091918, -0.08419653, -0.99321109, 0.97069734, -1.24113095, 1.50364316, -52.61619186, 38.32212830, -72.99035645, 4.74330044, -2.15991664, -101.35829163, 0.63361090, -0.01164884, 0.04394012, 0.77231526, 0.01323047, 0.00156363, -0.00265604, 0.00000000, 0.00000000, 0.00000000, 0.00000000
1, 0.0325, 13, -0.05299143, -0.08298668, -0.99443918, 0.90644681, -2.07158828, 0.80127144, -52.61619186, 38.32212830, -72.99035645, 4.74550724, -2.16524363, -101.35671234, 0.63362223, -0.01162570, 0.04398423, 0.77230382, 0.01520981, 0.00031570, -0.00142127, 0.00000000, 0.00000000, 0.00000000, 0.00000000
1, 0.0350, 14, -0.05309449, -0.08443832, -0.99505627, 0.84245032, -2.69179177, -0.03965917, -52.58696365, 38.38058853, -72.84420013, 4.74763870, -2.17194200, -101.35736847, 0.63361877, -0.01159203, 0.04403562, 0.77230424, 0.01519605, 0.00173067, -0.00079668, 0.00000000, 0.00000000, 0.00000000, 0.00000000
1, 0.0375, 15, -0.05159108, -0.08427645, -0.99930495, 0.70399499, -3.03793621, -0.39184684, -52.58696365, 38.38058853, -72.84420013, 4.74945974, -2.17942977, -101.35897827, 0.63360906, -0.01155095, 0.04408938, 0.77230972, 0.01356203, 0.00153756, 0.00345951, 0.00000000, 0.00000000, 0.00000000, 0.00000000
1, 0.0400, 16, -0.04317465, -0.08166068, -1.00178075, 0.35181987, -3.31741834, -0.53707290, -52.58696365, 38.38058853, -72.84420013, 4.74834251, -2.19383979, -101.36077881, 0.63359946, -0.01144683, 0.04416155, 0.77231497, 0.00489429, -0.00105799, 0.00594330, 0.00000000, 0.00000000, 0.00000000, 0.00000000
1, 0.0425, 17, -0.04062094, -0.08189552, -1.00078726, -0.14489959, -3.11237502, -0.40275970, -52.58696365, 38.38058853, -72.84420013, 4.74804306, -2.20151114, -101.36242676, 0.63358974, -0.01139277, 0.04420204, 0.77232146, 0.00220679, -0.00081753, 0.00495446, 0.00000000, 0.00000000, 0.00000000, 0.00000000
1, 0.0450, 18, -0.04006916, -0.08269784, -1.00663149, -0.50158191, -2.97865343, 0.01204631, -52.58696365, 38.38058853, -72.81496429, 4.74681139, -2.20893455, -101.36302185, 0.63358718, -0.01133564, 0.04423476, 0.77232254, 0.00152554, 0.00000661, 0.01080191, 0.00000000, 0.00000000, 0.00000000, 0.00000000
1, 0.0475, 19, -0.04127018, -0.07829376, -1.01258481, -0.78644705, -2.77302909, 0.21876958, -52.38234329, 38.32212830, -72.81496429, 4.74484634, -2.21588874, -101.36305237, 0.63358837, -0.01127783, 0.04425989, 0.77232099, 0.00260528, -0.00436294, 0.01675701, 0.00000000, 0.00000000, 0.00000000, 0.00000000
1, 0.0500, 20, -0.04433820, -0.07258632, -1.01586795, -0.99855512, -2.98386526, 0.28491822, -52.38234329, 38.32212830, -72.81496429, 4.74234724, -2.22338176, -101.36295319, 0.63359058, -0.01121348, 0.04428439, 0.77231872, 0.00554262, -0.01002651, 0.02004170, 0.00000000, 0.00000000, 0.00000000, 0.00000000
1, 0.0625, 21, -0.03536420, -0.08689021, -1.01002419, -2.06169200, -2.50267053, 0.34369648, -52.26541901, 37.06518555, -72.34726715, 4.72163820, -2.26067805, -101.36485291, 0.63358611, -0.01084654, 0.04435081, 0.77232379, -0.00408182, 0.00463941, 0.01419342, 0.00000000, 0.00000000, 0.00000000, 0.00000000
1, 0.0650, 22, -0.03412897, -0.08784790, -1.01074970, -2.06305003, -2.01491666, 0.34595081, -52.26541901, 37.06518555, -72.34726715, 4.71646309, -2.26576948, -101.36441040, 0.63359046, -0.01078374, 0.04434398, 0.77232146, -0.00540584, 0.00568733, 0.01491511, 0.00000000, 0.00000000, 0.00000000, 0.00000000
1, 0.0675, 23, -0.03474913, -0.08602754, -1.01135421, -2.06237841, -1.80405307, 0.13762952, -52.26541901, 37.06518555, -72.34726715, 4.71130800, -2.27029276, -101.36443329, 0.63359153, -0.01072470, 0.04433420, 0.77232200, -0.00486457, 0.00395683, 0.01551527, 0.00000000, 0.00000000, 0.00000000, 0.00000000
1, 0.0700, 24, -0.03567439, -0.08782616, -1.01490200, -2.20422149, -1.38555431, -0.00172828, -52.09003067, 38.29289627, -72.05495453, 4.70580864, -2.27374434, -101.36472321, 0.63359076, -0.01067089, 0.04431621, 0.77232450, -0.00399952, 0.00585123, 0.01905757, 0.00000000, 0.00000000, 0.00000000, 0.00000000
1, 0.0725, 25, -0.03005419, -0.09108265, -1.01292503, -2.27511287, -1.03633797, -0.14052555, -52.09003067, 38.29289627, -72.05495453, 4.70014334, -2.27629805, -101.36528015, 0.63358784, -0.01062211, 0.04429217, 0.77232879, -0.00966424, 0.00920633, 0.01707423, 0.00000000, 0.00000000, 0.00000000, 0.00000000
1, 0.0750, 26, -0.02662756, -0.09386233, -1.01157236, -2.20944500, -0.41369975, 0.42135519, -52.09003067, 38.29289627, -72.05495453, 4.69458103, -2.27741480, -101.36431885, 0.63359505, -0.01058419, 0.04426076, 0.77232522, -0.01311035, 0.01208276, 0.01571441, 0.00000000, 0.00000000, 0.00000000, 0.00000000
1, 0.0775, 27, -0.02758037, -0.09641519, -1.01159310, -2.00290370, 0.13883513, 1.12420392, -52.09003067, 38.29289627, -72.05495453, 4.68946123, -2.27729917, -101.36148071, 0.63361460, -0.01055776, 0.04422535, 0.77231157, -0.01215553, 0.01472459, 0.01572776, 0.00000000, 0.00000000, 0.00000000, 0.00000000
1, 0.0800, 28, -0.03089263, -0.09437350, -1.01148760, -1.65420604, 0.76305991, 1.68961489, -52.09003067, 38.29289627, -72.05495453, 4.68515301, -2.27574325, -101.35710907, 0.63364416, -0.01054612, 0.04418732, 0.77228963, -0.00881612, 0.01275771, 0.01561517, 0.00000000, 0.00000000, 0.00000000, 0.00000000
1, 0.0825, 29, -0.03678564, -0.09211800, -1.00957537, -1.23085570, 1.04354751, 1.76596093, -52.73311996, 37.50365448, -72.43495941, 4.68189240, -2.27350307, -101.35250092, 0.63367528, -0.01054499, 0.04415257, 0.77226627, -0.00288406, 0.01055874, 0.01369661, 0.00000000, 0.00000000, 0.00000000, 0.00000000
1, 0.0850, 30, -0.04117277, -0.09116434, -1.01082337, -1.01671803, 0.97749358, 1.48923671, -52.73311996, 37.50365448, -72.43495941, 4.67919540, -2.27137256, -101.34857941, 0.63370150, -0.01054596, 0.04412226, 0.77224630, 0.00154023, 0.00965184, 0.01493925, 0.00000000, 0.00000000, 0.00000000, 0.00000000
1, 0.0875, 31, -0.04072546, -0.08875027, -1.00885940, -1.01376307, 1.12172222, 0.93178105, -52.73311996, 37.50365448, -72.43495941, 4.67656088, -2.26876736, -101.34602356, 0.63371849, -0.01054995, 0.04408989, 0.77223414, 0.00113837, 0.00728343, 0.01296985, 0.00000000, 0.00000000, 0.00000000, 0.00000000
1, 0.0900, 32, -0.03506731, -0.09307647, -1.00980997, -1.08284891, 1.12376082, 0.65184861, -52.73311996, 37.50365448, -72.43495941, 4.69289446, -2.25689077, -101.34473419, 0.63372374, -0.01072092, 0.04413430, 0.77222496, -0.00431266, 0.01132506, 0.01393557, 0.00000000, 0.00000000, 0.00000000, 0.00000000
1, 0.0925, 33, -0.03160424, -0.09900332, -1.00932527, -1.22355771, 0.98421800, 0.57967693, -52.73311996, 37.50365448, -72.43495941, 4.68977070, -2.25455761, -101.34308624, 0.63373476, -0.01072003, 0.04410021, 0.77221787, -0.00773505, 0.01730607, 0.01344478, 0.00000000, 0.00000000, 0.00000000, 0.00000000
1, 0.0950, 34, -0.02793478, -0.10324802, -1.00651693, -1.29492688, 1.05289161, 0.64887887, -52.55773163, 37.59134674, -73.31189728, 4.68646193, -2.25206685, -101.34125519, 0.63374704, -0.01071924, 0.04406400, 0.77221000, -0.01136106, 0.02160814, 0.01063001, 0.00000000, 0.00000000, 0.00000000, 0.00000000
1, 0.0975, 35, -0.02719301, -0.10873198, -1.00252092, -1.29882216, 1.39702559, 1.13882637, -52.55773163, 37.59134674, -73.31189728, 4.68309164, -2.24881887, -101.33812714, 0.63376790, -0.01072372, 0.04402307, 0.77219516, -0.01204620, 0.02715050, 0.00662697, 0.00000000, 0.00000000, 0.00000000, 0.00000000
1, 0.1000, 36, -0.03005017, -0.10805635, -0.99779171, -1.02049387, 1.88149559, 1.70271075, -52.55773163, 37.59134674, -73.31189728, 4.68035936, -2.24447775, -101.33349609, 0.63379860, -0.01073967, 0.04398026, 0.77217215, -0.00911332, 0.02652213, 0.00189096, 0.00000000, 0.00000000, 0.00000000, 0.00000000
1, 0.1025, 37, -0.03791210, -0.10277272, -0.99685401, -0.81128120, 2.22803736, 2.05578113, -52.55773163, 37.59134674, -73.31189728, 4.67811251, -2.23934579, -101.32791901, 0.63383555, -0.01076401, 0.04393626, 0.77214396, -0.00116189, 0.02127726, 0.00094658, 0.00000000, 0.00000000, 0.00000000, 0.00000000
1, 0.1050, 38, -0.04367747, -0.09916859, -0.99676025, -0.59772551, 2.37102079, 1.78002298, -52.55773163, 37.59134674, -73.31189728, 4.67642641, -2.23380065, -101.32299805, 0.63386792, -0.01079398, 0.04389383, 0.77211934, 0.00470018, 0.01770213, 0.00084662, 0.00000000, 0.00000000, 0.00000000, 0.00000000
1, 0.1075, 39, -0.04492019, -0.09882742, -0.99469864, -0.38397586, 2.44432497, 1.50394285, -53.25928116, 38.40982056, -73.10727692, 4.67530107, -2.22801685, -101.31874847, 0.63389570, -0.01082841, 0.04385391, 0.77209836, 0.00604378, 0.01738019, -0.00122052, 0.00000000, 0.00000000, 0.00000000, 0.00000000
1, 0.1100, 40, -0.04628757, -0.09897760, -0.99190992, -0.30971128, 2.23994589, 1.01552200, -53.25928116, 38.40982056, -73.10727692, 4.67441034, -2.22264242, -101.31575775, 0.63391501, -0.01086088, 0.04381796, 0.77208406, 0.00750488, 0.01754556, -0.00401419, 0.00000000, 0.00000000, 0.00000000, 0.00000000
1, 0.1125, 41, -0.04073670, -0.10732358, -0.99069029, -0.16552505, 2.03474617, 0.66750860, -53.25928116, 38.40982056, -73.10727692, 4.67391634, -2.21770906, -101.31367493, 0.63392830, -0.01089223, 0.04378719, 0.77207452, 0.00204006, 0.02589986, -0.00523776, 0.00000000, 0.00000000, 0.00000000, 0.00000000
1, 0.1150, 42, -0.03800163, -0.11300759, -0.99081904, -0.02256262, 1.96768630, 0.45966434, -53.25928116, 38.40982056, -73.10727692, 4.67379951, -2.21289945, -101.31212616, 0.63393795, -0.01092462, 0.04375970, 0.77206773, -0.00061115, 0.03158563, -0.00511247, 0.00000000, 0.00000000, 0.00000000, 0.00000000
1, 0.1175, 43, -0.03800163, -0.11300759, -0.99081904, -0.02256262, 1.96768630, 0.45966434, -53.25928116, 38.40982056, -73.10727692, 4.67368364, -2.20809054, -101.31056976, 0.63394755, -0.01095702, 0.04373221, 0.77206081, -0.00052727, 0.03158738, -0.00511581, 0.00000000, 0.00000000, 0.00000000, 0.00000000
1, 0.1200, 44, -0.04556406, -0.11195403, -0.99172693, 0.90001446, 2.04678392, -0.01687750, -52.70388794, 38.64366913, -72.61034393, 4.67591953, -2.20298696, -101.31020355, 0.63394904, -0.01100396, 0.04371906, 0.77205980, 0.00712417, 0.03049468, -0.00420815, 0.00000000, 0.00000000, 0.00000000, 0.00000000
1, 0.1225, 45, -0.04556406, -0.11195403, -0.99172693, 0.90001446, 2.04678392, -0.01687750, -52.70388794, 38.64366913, -72.61034393, 4.67815447, -2.19788361, -101.30982971, 0.63395047, -0.01105089, 0.04370591, 0.77205867, 0.00721317, 0.03045555, -0.00420839, 0.00000000, 0.00000000, 0.00000000, 0.00000000
1, 0.1250, 46, -0.04790391, -0.10783278, -0.99318582, 1.75035691, 2.05337048, -0.21557409, -52.70388794, 38.64366913, -72.61034393, 4.68253565, -2.19272327, -101.30995178, 0.63394839, -0.01110989, 0.04370694, 0.77205950, 0.00964302, 0.02625787, -0.00274676, 0.00000000, 0.00000000, 0.00000000, 0.00000000
1, 0.1275, 47, -0.04790391, -0.10783278, -0.99318582, 1.75035691, 2.05337048, -0.21557409, -52.70388794, 38.64366913, -72.61034393, 4.68691540, -2.18756342, -101.31005859, 0.63394624, -0.01116889, 0.04370797, 0.77206022, 0.00973302, 0.02618147, -0.00274390, 0.00000000, 0.00000000, 0.00000000, 0.00000000
1, 0.1300, 48, -0.05352794, -0.10018238, -0.99879295, 2.24891233, 1.64111650, -0.56014079, -52.70388794, 38.64366913, -72.61034393, 4.69257784, -2.18335962, -101.31112671, 0.63393790, -0.01122817, 0.04372302, 0.77206552, 0.01543035, 0.01843239, 0.00286841, 0.00000000, 0.00000000, 0.00000000, 0.00000000
1, 0.1325, 49, -0.05352794, -0.10018238, -0.99879295, 2.24891233, 1.64111650, -0.56014079, -52.96696854, 38.64366913, -73.07804871, 4.69824028, -2.17915606, -101.31217957, 0.63392943, -0.01128745, 0.04373806, 0.77207059, 0.01550368, 0.01833375, 0.00287384, 0.00000000, 0.00000000, 0.00000000, 0.00000000
1, 0.1350, 50, -0.05581437, -0.09846231, -1.00355136, 2.18616915, 1.02273977, -1.61035860, -52.96696854, 38.52674484, -73.07804871, 4.70385027, -2.17627788, -101.31598663, 0.63390279, -0.01133645, 0.04376035, 0.77209061, 0.01784030, 0.01651599, 0.00763834, 0.00000000, 0.00000000, 0.00000000, 0.00000000
1, 0.1375, 51, -0.05421754, -0.09881047, -1.00439262, 1.90661693, 0.67641044, -2.03407431, -52.96696854, 38.52674484, -73.07804871, 4.70880461, -2.17417502, -101.32091522, 0.63386863, -0.01137616, 0.04378260, 0.77211666, 0.01628014, 0.01677794, 0.00848532, 0.00000000, 0.00000000, 0.00000000, 0.00000000
1, 0.1400, 52, -0.05654273, -0.09712052, -1.00513327, 1.34219933, 0.53570527, -2.25106621, -52.96696854, 38.52674484, -73.07804871, 4.73092031, -2.19614697, -101.32593536, 0.63383645, -0.01134833, 0.04405342, 0.77212811, 0.01822215, 0.01470480, 0.00927228, 0.00000000, 0.00000000, 0.00000000, 0.00000000
1, 0.1425, 53, -0.05494674, -0.09539303, -1.00779033, 0.84973347, 0.11728922, -2.53822637, -52.96696854, 38.52674484, -73.07804871, 4.73328590, -2.19533062, -101.33223724, 0.63379359, -0.01136450, 0.04406548, 0.77216238, 0.01664037, 0.01293613, 0.01193213, 0.00000000, 0.00000000, 0.00000000, 0.00000000
1, 0.1775, 54, -0.03452802, -0.13217290, -1.00440443, -1.08049083, 2.38650799, -0.31902906, -52.47003555, 37.85442734, -73.04881287, 4.69352579, -2.20123053, -101.41944122, 0.63321066, -0.01107142, 0.04383856, 0.77265763, -0.00388124, 0.05040741, 0.00849313, 0.00000000, 0.00000000, 0.00000000, 0.00000000
1, 0.1800, 55, -0.03179676, -0.13505076, -1.00671053, -0.51704353, 2.87560868, -0.10042679, -52.47003555, 37.85442734, -73.04881287, 4.69221973, -2.19404459, -101.41911316, 0.63321185, -0.01111285, 0.04379009, 0.77265882, -0.00648717, 0.05330758, 0.01079261, 0.00000000, 0.00000000, 0.00000000, 0.00000000
1, 0.1825, 56, -0.02753518, -0.13771783, -1.00352407, -0.37855834, 3.36172056, 0.18264256, -51.91464615, 36.77287292, -73.10727692, 4.69122982, -2.18570662, -101.41796112, 0.63321829, -0.01116411, 0.04373732, 0.77265584, -0.01060333, 0.05599140, 0.00759917, 0.00000000, 0.00000000, 0.00000000, 0.00000000
1, 0.1850, 57, -0.02276041, -0.14256071, -1.00095344, -0.09897632, 3.84801698, 0.53723943, -51.91464615, 36.77287292, -73.10727692, 4.69090176, -2.17622805, -101.41583252, 0.63323104, -0.01122710, 0.04368262, 0.77264756, -0.01521280, 0.06083947, 0.00502187, 0.00000000, 0.00000000, 0.00000000, 0.00000000
1, 0.1875, 58, -0.02112036, -0.14641717, -1.00302982, 0.03989683, 4.19477034, 0.81966472, -51.91464615, 36.77287292, -73.10727692, 4.69089174, -2.16594434, -101.41291809, 0.63324887, -0.01129758, 0.04362554, 0.77263516, -0.01667348, 0.06469555, 0.00709146, 0.00000000, 0.00000000, 0.00000000, 0.00000000
1, 0.1900, 59, -0.02258214, -0.14581384, -1.00376916, 0.39348978, 4.26643276, 0.82439959, -51.91464615, 36.77287292, -73.10727692, 4.75381184, -2.14027476, -101.41140747, 0.63324827, -0.01181916, 0.04390804, 0.77261186, -0.01476400, 0.06299717, 0.00790435, 0.00000000, 0.00000000, 0.00000000, 0.00000000
1, 0.1925, 60, -0.02553569, -0.14389770, -1.00280893, 0.67802662, 4.48010111, 0.48008367, -51.91464615, 36.77287292, -73.10727692, 4.75542784, -2.12921262, -101.40927887, 0.63326049, -0.01190358, 0.04385770, 0.77260339, -0.01161751, 0.06105236, 0.00693923, 0.00000000, 0.00000000, 0.00000000, 0.00000000
1, 0.1950, 61, -0.03004531, -0.14367799, -1.00333130, 0.82430232, 4.27794504, -0.21674201, -52.73311996, 36.88979721, -73.42881775, 4.75747538, -2.11850977, -101.40893555, 0.63326073, -0.01198728, 0.04381244, 0.77260447, -0.00692123, 0.06079648, 0.00745768, 0.00000000, 0.00000000, 0.00000000, 0.00000000
1, 0.1975, 62, -0.03226353, -0.14322034, -1.00139868, 0.75727600, 4.14306021, -0.77636844, -52.73311996, 36.88979721, -73.42881775, 4.75940895, -2.10802674, -101.41001129, 0.63325137, -0.01206832, 0.04376776, 0.77261341, -0.00452016, 0.06030466, 0.00552118, 0.00000000, 0.00000000, 0.00000000, 0.00000000
1, 0.2000, 63, -0.03500599, -0.14120615, -0.99714881, 0.33607474, 4.14555025, -1.33976352, -52.73311996, 36.88979721, -73.42881775, 4.76033974, -2.09742069, -101.41249084, 0.63323265, -0.01214412, 0.04371580, 0.77263051, -0.00159272, 0.05827374, 0.00126594, 0.00000000, 0.00000000, 0.00000000, 0.00000000
1, 0.2025, 64, -0.03398111, -0.14604749, -0.99777406, 0.12550397, 4.28676319, -1.69057953, -52.73311996, 36.88979721, -73.42881775, 4.76077509, -2.08639026, -101.41581726, 0.63320822, -0.01221973, 0.04365825, 0.77265263, -0.00242521, 0.06310691, 0.00188470, 0.00000000, 0.00000000, 0.00000000, 0.00000000
1, 0.2050, 65, -0.02993088, -0.15235473, -0.99460793, 0.26682472, 4.35723543, -1.68849242, -52.73311996, 36.88979721, -73.42881775, 4.76156187, -2.07518411, -101.41912079, 0.63318384, -0.01229847, 0.04360210, 0.77267456, -0.00627998, 0.06939991, -0.00128734, 0.00000000, 0.00000000, 0.00000000, 0.00000000
1, 0.2075, 66, -0.02750332, -0.15674615, -0.98937511, 0.75990266, 4.70658159, -1.47141671, -52.79158020, 36.88979721, -72.61034393, 4.76355886, -2.06315279, -101.42181396, 0.63316327, -0.01238970, 0.04354950, 0.77269280, -0.00849769, 0.07375597, -0.00652480, 0.00000000, 0.00000000, 0.00000000, 0.00000000
1, 0.2100, 67, -0.03151264, -0.16030005, -0.98772091, 0.89819378, 5.26237202, -1.18802524, -52.79158020, 36.88979721, -72.61034393, 4.76587152, -2.04979587, -101.42367554, 0.63314801, -0.01249195, 0.04349162, 0.77270693, -0.00425540, 0.07726898, -0.00818390, 0.00000000, 0.00000000, 0.00000000, 0.00000000
1, 0.2125, 68, -0.03200007, -0.16140187, -0.98675644, 1.17916381, 5.40088177, -0.90480125, -52.79158020, 36.88979721, -72.61034393, 4.76885939, -2.03615260, -101.42480469, 0.63313758, -0.01260014, 0.04343665, 0.77271682, -0.00353001, 0.07831816, -0.00915253, 0.00000000, 0.00000000, 0.00000000, 0.00000000
1, 0.2150, 69, -0.03199725, -0.16396451, -0.98469955, 1.31932044, 5.88942862, -0.90078175, -52.79158020, 36.88979721, -72.61034393, 4.77219343, -2.02129245, -101.42582703, 0.63312763, -0.01271850, 0.04337730, 0.77272642, -0.00327363, 0.08082208, -0.01121378, 0.00000000, 0.00000000, 0.00000000, 0.00000000
1, 0.2175, 70, -0.03388987, -0.16735023, -0.98765433, 1.38949585, 6.09886265, -0.89893305, -52.79158020, 36.88979721, -72.61034393, 4.77570152, -2.00591183, -101.42679596, 0.63311791, -0.01284136, 0.04331623, 0.77273583, -0.00111273, 0.08414606, -0.00826323, 0.00000000, 0.00000000, 0.00000000, 0.00000000
1, 0.2200, 71, -0.02719909, -0.17394690, -0.99238276, 1.45710421, 6.02470970, -0.34027264, -52.00233841, 36.97749329, -72.43495941, 4.77932930, -1.99083161, -101.42638397, 0.63311750, -0.01296338, 0.04325748, 0.77273744, -0.00754048, 0.09067888, -0.00353873, 0.00000000, 0.00000000, 0.00000000, 0.00000000
1, 0.2225, 72, -0.01348388, -0.15376420, -1.00397992, 1.73943222, 5.67546606, -0.05930276, -52.00233841, 36.97749329, -72.43495941, 4.78364182, -1.97668028, -101.42534637, 0.63312131, -0.01308314, 0.04320839, 0.77273488, -0.02100883, 0.07042052, 0.00805622, 0.00000000, 0.00000000, 0.00000000, 0.00000000
1, 0.2250, 73, -0.03469840, -0.15202521, -0.99379230, 2.03375959, 4.78400898, -1.52497089, -52.00233841, 36.97749329, -72.43495941, 4.78882313, -1.96444356, -101.42813873, 0.63309962, -0.01319332, 0.04317617, 0.77275276, 0.00041911, 0.06859086, -0.00213122, 0.00000000, 0.00000000, 0.00000000, 0.00000000
1, 0.2275, 74, -0.04003388, -0.16839935, -0.98198652, 1.97138965, 4.93575573, -2.99022174, -52.00233841, 36.97749329, -72.43495941, 4.79397202, -1.95152295, -101.43456268, 0.63305324, -0.01330657, 0.04314037, 0.77279079, 0.00597998, 0.08487488, -0.01393706, 0.00000000, 0.00000000, 0.00000000, 0.00000000
1, 0.2300, 75, -0.03159195, -0.17101553, -0.98229712, 1.54712880, 5.28359747, -3.20319390, -52.00233841, 36.97749329, -72.43495941, 4.79807281, -1.93769050, -101.44145203, 0.63300371, -0.01342004, 0.04309256, 0.77283204, -0.00222067, 0.08741907, -0.01362878, 0.00000000, 0.00000000, 0.00000000, 0.00000000
1, 0.2325, 76, -0.03093177, -0.16447154, -0.98091900, 1.12242043, 5.49086332, -3.27728581, -52.70388794, 38.55597687, -72.20111084, 4.80111599, -1.92332625, -101.44847107, 0.63295329, -0.01353120, 0.04303469, 0.77287465, -0.00263029, 0.08082148, -0.01501084, 0.00000000, 0.00000000, 0.00000000, 0.00000000
1, 0.2350, 77, -0.03374711, -0.16278629, -0.98142010, 1.12245035, 5.63083029, -3.34640408, -52.70388794, 38.55597687, -72.20111084, 4.80416012, -1.90859818, -101.45563507, 0.63290173, -0.01364478, 0.04297487, 0.77291805, 0.00044196, 0.07908257, -0.01451397, 0.00000000, 0.00000000, 0.00000000, 0.00000000
1, 0.2375, 78, -0.03996353, -0.15708014, -0.98704201, 1.26415896, 5.56194448, -3.34496093, -52.70388794, 38.55597687, -72.20111084, 4.80755901, -1.89404118, -101.46280670, 0.63285023, -0.01375916, 0.04291840, 0.77296150, 0.00691231, 0.07331667, -0.00889528, 0.00000000, 0.00000000, 0.00000000, 0.00000000
1, 0.2400, 79, -0.04487909, -0.14748935, -0.99202478, 1.69134486, 5.21836424, -3.62032533, -52.70388794, 38.55597687, -72.20111084, 4.84606981, -1.88669360, -101.47080231, 0.63279021, -0.01401845, 0.04313863, 0.77299368, 0.01195604, 0.06305612, -0.00386036, 0.00000000, 0.00000000, 0.00000000, 0.00000000
1, 0.2425, 80, -0.04612160, -0.13884281, -0.99759156, 1.83897877, 4.52845526, -4.31940508, -52.70388794, 38.55597687, -72.20111084, 4.85098934, -1.87450087, -101.48059845, 0.63272107, -0.01412427, 0.04310580, 0.77305007, 0.01341124, 0.05432346, 0.00170678, 0.00000000, 0.00000000, 0.00000000, 0.00000000
1, 0.2450, 81, -0.04716014, -0.13181365, -0.99756396, 1.48963928, 3.83333349, -4.74561357, -52.55773163, 37.18210983, -73.04881287, 4.85507250, -1.86394799, -101.49162292, 0.63264412, -0.01421395, 0.04307655, 0.77311301, 0.01463387, 0.04722283, 0.00167918, 0.00000000, 0.00000000, 0.00000000, 0.00000000
1, 0.2475, 82, -0.04954589, -0.12626250, -0.99560666, 0.43169621, 3.20270658, -5.04079962, -52.55773163, 37.18210983, -73.04881287, 4.85653830, -1.85490310, -101.50350952, 0.63256198, -0.01427866, 0.04303806, 0.77318120, 0.01717739, 0.04164578, -0.00028098, 0.00000000, 0.00000000, 0.00000000, 0.00000000
1, 0.2500, 83, -0.04946912, -0.12702970, -0.99025255, -0.91169417, 2.98674130, -5.12829781, -52.55773163, 37.18210983, -73.04881287, 4.85465050, -1.84637809, -101.51566315, 0.63247859, -0.01432128, 0.04297987, 0.77325189, 0.01724933, 0.04244538, -0.00564277, 0.00000000, 0.00000000, 0.00000000, 0.00000000
1, 0.2525, 84, -0.04423148, -0.13066776, -0.98621082, -2.25800943, 2.76651478, -4.72745752, -52.55773163, 37.18210983, -73.04881287, 4.84936619, -1.83848715, -101.52684784, 0.63240218, -0.01434122, 0.04290213, 0.77331835, 0.01214935, 0.04617492, -0.00969660, 0.00000000, 0.00000000, 0.00000000, 0.00000000
1, 0.2550, 85, -0.03948174, -0.13443089, -0.98205197, -3.39411306, 2.68440104, -4.04427624, -52.55773163, 37.18210983, -73.04881287, 4.84118509, -1.83094645, -101.53636169, 0.63233751, -0.01434347, 0.04280657, 0.77337646, 0.00753114, 0.05007988, -0.01387179, 0.00000000, 0.00000000, 0.00000000, 0.00000000
1, 0.2575, 86, -0.03840090, -0.13321610, -0.98142827, -4.45759296, 2.53543997, -3.63958454, -52.26541901, 35.42823792, -73.48728180, 4.83031368, -1.82386351, -101.54489899, 0.63227987, -0.01432815, 0.04269524, 0.77343005, 0.00657387, 0.04905374, -0.01451546, 0.00000000, 0.00000000, 0.00000000, 0.00000000
1, 0.2600, 87, -0.03620501, -0.13210334, -0.98250073, -5.44619608, 2.11302948, -3.79339790, -52.26541901, 35.42823792, -73.48728180, 4.81698465, -1.81780255, -101.55390167, 0.63221955, -0.01429221, 0.04257301, 0.77348679, 0.00448370, 0.04817241, -0.01346583, 0.00000000, 0.00000000, 0.00000000, 0.00000000
1, 0.2625, 88, -0.03630094, -0.13183956, -0.98542237, -6.57283735, 1.34508276, -4.36916018, -52.26541901, 35.42823792, -73.48728180, 4.80088806, -1.81353605, -101.56451416, 0.63214910, -0.01422831, 0.04244218, 0.77355272, 0.00465406, 0.04818821, -0.01057011, 0.00000000, 0.00000000, 0.00000000, 0.00000000
1, 0.2650, 89, -0.03435578, -0.13366482, -0.98310256, -7.98128414, 0.43740916, -5.08862305, -52.26541901, 35.42823792, -73.48728180, 4.78133392, -1.81138361, -101.57710266, 0.63206613, -0.01413033, 0.04229987, 0.77363014, 0.00274645, 0.05035332, -0.01291955, 0.00000000, 0.00000000, 0.00000000, 0.00000000
1, 0.2675, 90, -0.02689780, -0.14130078, -0.97796762, -9.46090412, -0.47127005, -5.73920584, -52.26541901, 35.42823792, -73.48728180, 4.75813675, -1.81136513, -101.59150696, 0.63197172, -0.01399721, 0.04214492, 0.77371806, -0.00471120, 0.05839253, -0.01808810, 0.00000000, 0.00000000, 0.00000000, 0.00000000
1, 0.2700, 91, -0.01842361, -0.15598330, -0.97054702, -10.66036320, -1.10269010, -6.03615713, -52.47003555, 38.43905258, -72.20111084, 4.73196840, -1.81286430, -101.60676575, 0.63187212, -0.01383717, 0.04197833, 0.77381140, -0.01321155, 0.07353006, -0.02554566, 0.00000000, 0.00000000, 0.00000000, 0.00000000
1, 0.2725, 92, -0.00541870, -0.17734230, -0.95886236, -11.29885006, -1.10869539, -5.76505089, -52.47003555, 38.43905258, -72.20111084, 4.70418358, -1.81444097, -101.62137604, 0.63177717, -0.01366797, 0.04180113, 0.77390158, -0.02624398, 0.09537216, -0.03726935, 0.00000000, 0.00000000, 0.00000000, 0.00000000
1, 0.2750, 93, 0.00467620, -0.19662909, -0.95084351, -11.37434101, -0.76617563, -5.13646078, -52.47003555, 38.43905258, -72.20111084, 4.67615891, -1.81530035, -101.63433838, 0.63169307, -0.01350294, 0.04161812, 0.77398288, -0.03635385, 0.11514624, -0.04532772, 0.00000000, 0.00000000, 0.00000000, 0.00000000
1, 0.2775, 94, 0.00949266, -0.20547003, -0.94890171, -11.02709007, -0.07409814, -4.36144066, -52.47003555, 38.43905258, -72.20111084, 4.64893532, -1.81459880, -101.64522552, 0.63162261, -0.01335368, 0.04143165, 0.77405304, -0.04115809, 0.12446050, -0.04730852, 0.00000000, 0.00000000, 0.00000000, 0.00000000
1, 0.2800, 95, 0.00781838, -0.21009552, -0.94808650, -10.11130333, 0.48483855, -3.92881656, -52.47003555, 38.43905258, -72.20111084, 4.62396431, -1.81259620, -101.65492249, 0.63155961, -0.01322609, 0.04125307, 0.77411616, -0.03944887, 0.12952010, -0.04815997, 0.00000000, 0.00000000, 0.00000000, 0.00000000
1, 0.2825, 96, 0.00840599, -0.20986490, -0.94601065, -8.91103935, 0.97750914, -3.70227122, -52.20695496, 36.86056519, -72.75650024, 4.60197115, -1.80941617, -101.66395569, 0.63150054, -0.01312315, 0.04108804, 0.77417493, -0.03998102, 0.12967172, -0.05026855, 0.00000000, 0.00000000, 0.00000000, 0.00000000
1, 0.2850, 97, 0.00983964, -0.20719245, -0.94537663, -7.78172731, 1.53946245, -3.47628641, -52.20695496, 36.86056519, -72.75650024, 4.58278084, -1.80488431, -101.67231750, 0.63144535, -0.01304505, 0.04093440, 0.77422923, -0.04133559, 0.12733275, -0.05093175, 0.00000000, 0.00000000, 0.00000000, 0.00000000
1, 0.2875, 98, 0.00910041, -0.20305000, -0.94840539, -6.86137390, 1.96512878, -3.74193001, -52.20695496, 36.86056519, -72.75650024, 4.56590891, -1.79924083, -101.68125153, 0.63138592, -0.01298707, 0.04079037, 0.77428645, -0.04049794, 0.12348349, -0.04792954, 0.00000000, 0.00000000, 0.00000000, 0.00000000
1, 0.2900, 99, 0.00753058, -0.19950533, -0.95327038, -6.22018433, 1.90510774, -4.43193388, -52.20695496, 36.86056519, -72.75650024, 4.60635853, -1.77656603, -101.69306946, 0.63129717, -0.01335908, 0.04094031, 0.77434438, -0.03853251, 0.11923442, -0.04302043, 0.00000000, 0.00000000, 0.00000000, 0.00000000
1, 0.2925, 100, 0.01219484, -0.19835541, -0.95736676, -5.57609987, 1.70938122, -5.54115629, -52.20695496, 36.86056519, -72.75650024, 4.59283543, -1.77119529, -101.70654297, 0.63120669, -0.01331611, 0.04082096, 0.77442521, -0.04310309, 0.11831941, -0.03894585, 0.00000000, 0.00000000, 0.00000000, 0.00000000
1, 0.2950, 101, 0.01446394, -0.19987272, -0.96356595, -5.28438473, 1.30385184, -6.79528236, -53.02542877, 37.53288651, -72.31803131, 4.58013964, -1.76658785, -101.72322083, 0.63109457, -0.01327142, 0.04071175, 0.77452314, -0.04529182, 0.12005729, -0.03276694, 0.00000000, 0.00000000, 0.00000000, 0.00000000
1, 0.2975, 102, 0.01984481, -0.19848594, -0.96631598, -4.99205685, 0.82925195, -8.11949348, -53.02542877, 37.53288651, -72.31803131, 4.56827736, -1.76290226, -101.74330139, 0.63095951, -0.01322391, 0.04061363, 0.77463913, -0.05060840, 0.11887663, -0.03003538, 0.00000000, 0.00000000, 0.00000000, 0.00000000
1, 0.3000, 103, 0.02288498, -0.19896322, -0.96495461, -5.05329227, 0.42295671, -9.51755810, -53.02542877, 37.53288651, -72.31803131, 4.55637169, -1.75995517, -101.76696777, 0.63080043, -0.01316993, 0.04051965, 0.77477449, -0.05359715, 0.11956084, -0.03141475, 0.00000000, 0.00000000, 0.00000000, 0.00000000
1, 0.3025, 104, 0.02655318, -0.20333105, -0.96190333, -5.18956852, 0.49975690, -10.42591381, -53.02542877, 37.53288651, -72.31803131, 4.54419184, -1.75664210, -101.79285431, 0.63062608, -0.01311618, 0.04042206, 0.77492243, -0.05720755, 0.12414032, -0.03448474, 0.00000000, 0.00000000, 0.00000000, 0.00000000
1, 0.3050, 105, 0.02994375, -0.20565021, -0.95726103, -5.47064257, 0.85082728, -10.91616917, -53.02542877, 37.53288651, -72.31803131, 4.53134394, -1.75236249, -101.81991577, 0.63044387, -0.01306492, 0.04031475, 0.77507722, -0.06052349, 0.12668276, -0.03914709, 0.00000000, 0.00000000, 0.00000000, 0.00000000
1, 0.3075, 106, 0.03227410, -0.20831323, -0.95616001, -5.47174692, 1.54883587, -11.05247593, -52.03157043, 38.00058365, -72.28880310, 4.51849604, -1.74632239, -101.84716797, 0.63025981, -0.01302557, 0.04019776, 0.77523351, -0.06274845, 0.12956893, -0.04026896, 0.00000000, 0.00000000, 0.00000000, 0.00000000
1, 0.3100, 107, 0.03252118, -0.21038562, -0.95458567, -5.40437841, 2.31387639, -10.83876324, -52.03157043, 38.00058365, -72.28880310, 4.50579309, -1.73842430, -101.87373352, 0.63008004, -0.01299990, 0.04007147, 0.77538663, -0.06285775, 0.13186191, -0.04186487, 0.00000000, 0.00000000, 0.00000000, 0.00000000
1, 0.3125, 108, 0.03151258, -0.20736364, -0.95396960, -4.91207647, 2.94193864, -10.62039852, -52.03157043, 38.00058365, -72.28880310, 4.49429703, -1.72900915, -101.89963531, 0.62990433, -0.01299143, 0.03994492, 0.77553606, -0.06168489, 0.12903947, -0.04250169, 0.00000000, 0.00000000, 0.00000000, 0.00000000
1, 0.3150, 109, 0.02730316, -0.19900978, -0.95517838, -4.49050188, 3.70957088, -10.47203636, -52.03157043, 38.00058365, -72.28880310, 4.48383474, -1.71771479, -101.92502594, 0.62973160, -0.01300161, 0.03981500, 0.77568281, -0.05727844, 0.12086711, -0.04131305, 0.00000000, 0.00000000, 0.00000000, 0.00000000
1, 0.3175, 110, 0.01927839, -0.18704124, -0.95615602, -4.27858782, 3.99008656, -10.53786182, -52.03157043, 38.00058365, -72.28880310, 4.47390032, -1.70571291, -101.95052338, 0.62955791, -0.01301950, 0.03968479, 0.77583015, -0.04904429, 0.10907087, -0.04035521, 0.00000000, 0.00000000, 0.00000000, 0.00000000
1, 0.3200, 111, 0.01209760, -0.17544159, -0.95578927, -3.99302125, 4.13529301, -11.02202606, -52.14849472, 38.40982056, -72.61034393, 4.46470881, -1.69325912, -101.97720337, 0.62937605, -0.01304419, 0.03955727, 0.77598381, -0.04164623, 0.09763058, -0.04074091, 0.00000000, 0.00000000, 0.00000000, 0.00000000
1, 0.3225, 112, 0.00886279, -0.16842623, -0.95565772, -3.98987222, 4.20984221, -11.57980347, -52.14849472, 38.40982056, -72.61034393, 4.45555973, -1.68051541, -102.00525665, 0.62918478, -0.01307067, 0.03942863, 0.77614504, -0.03818911, 0.09077384, -0.04089148, 0.00000000, 0.00000000, 0.00000000, 0.00000000
1, 0.3250, 113, -0.00160474, -0.16001688, -0.95302039, -4.34118223, 4.07154465, -11.93367290, -52.14849472, 38.40982056, -72.61034393, 4.44555330, -1.66805232, -102.03422546, 0.62898749, -0.01309029, 0.03929583, 0.77631140, -0.02750414, 0.08253804, -0.04354852, 0.00000000, 0.00000000, 0.00000000, 0.00000000
1, 0.3275, 114, -0.00029420, -0.15893380, -0.95081264, -4.69171572, 3.65453124, -12.28882980, -52.14849472, 38.40982056, -72.61034393, 4.43469286, -1.65656543, -102.06415558, 0.62878376, -0.01309834, 0.03916271, 0.77648288, -0.02861428, 0.08164342, -0.04577678, 0.00000000, 0.00000000, 0.00000000, 0.00000000
1, 0.3300, 115, -0.00494338, -0.16031627, -0.94805664, -4.83225918, 3.30534196, -12.29220486, -52.14849472, 38.40982056, -72.61034393, 4.42347765, -1.64595354, -102.09416962, 0.62857968, -0.01309854, 0.03903199, 0.77665466, -0.02377997, 0.08322057, -0.04855318, 0.00000000, 0.00000000, 0.00000000, 0.00000000
1, 0.3325, 116, -0.00494338, -0.16031627, -0.94805664, -4.83225918, 3.30534196, -12.29220486, -52.55773163, 35.57439423, -72.55188751, 4.41225624, -1.63534784, -102.12418365, 0.62837559, -0.01309875, 0.03890128, 0.77682638, -0.02359495, 0.08341533, -0.04857355, 0.00000000, 0.00000000, 0.00000000, 0.00000000
1, 0.3350, 117, -0.01426702, -0.15415698, -0.93555903, -4.27143908, 3.23092175, -11.37855530, -52.55773163, 35.57439423, -72.55188751, 4.40236712, -1.62510860, -102.15193176, 0.62818670, -0.01310460, 0.03878134, 0.77698505, -0.01409267, 0.07742766, -0.06108952, 0.00000000, 0.00000000, 0.00000000, 0.00000000
1, 0.3375, 118, -0.01426702, -0.15415698, -0.93555903, -4.27143908, 3.23092175, -11.37855530, -52.55773163, 35.57439423, -72.55188751, 4.39247322, -1.61487401, -102.17968750, 0.62799776, -0.01311046, 0.03866141, 0.77714366, -0.01391411, 0.07759938, -0.06110775, 0.00000000, 0.00000000, 0.00000000, 0.00000000
1, 0.3400, 119, -0.02129543, -0.13947958, -0.94114161, -4.05658484, 2.60621786, -11.51832962, -52.55773163, 35.57439423, -72.55188751, 4.40392160, -1.60453165, -102.20805359, 0.62780213, -0.01323383, 0.03868572, 0.77729833, -0.00670525, 0.06272245, -0.05551489, 0.00000000, 0.00000000, 0.00000000, 0.00000000
1, 0.3425, 120, -0.02129543, -0.13947958, -0.94114161, -4.05658484, 2.60621786, -11.51832962, -52.55773163, 35.57439423, -72.55188751, 4.39456844, -1.59582615, -102.23627472, 0.62761021, -0.01323218, 0.03857790, 0.77745879, -0.00655338, 0.06288483, -0.05553176, 0.00000000, 0.00000000, 0.00000000, 0.00000000
1, 0.3450, 121, -0.02636178, -0.12759134, -0.94526148, -4.96244717, 0.59254283, -12.93439293, -52.14849472, 37.91289139, -72.75650024, 4.38305664, -1.59187520, -102.26841736, 0.62739271, -0.01318517, 0.03848189, 0.77763987, -0.00141810, 0.05119668, -0.05142921, 0.00000000, 0.00000000, 0.00000000, 0.00000000
1, 0.3475, 122, -0.02636178, -0.12759134, -0.94526148, -4.96244717, 0.59254283, -12.93439293, -52.14849472, 37.91289139, -72.75650024, 4.37154245, -1.58792973, -102.30056000, 0.62717515, -0.01313816, 0.03838586, 0.77782089, -0.00134927, 0.05139685, -0.05144633, 0.00000000, 0.00000000, 0.00000000, 0.00000000
1, 0.3500, 123, -0.02282511, -0.12097514, -0.95128721, -6.56503201, -2.45871735, -15.68959904, -52.14849472, 37.91289139, -72.75650024, 4.35622787, -1.59107447, -102.34015656, 0.62690866, -0.01301975, 0.03830360, 0.77804166, -0.00494080, 0.04504716, -0.04543942, 0.00000000, 0.00000000, 0.00000000, 0.00000000
1, 0.3525, 124, -0.02024905, -0.12436812, -0.94970089, -7.40171909, -4.05453014, -17.03308296, -52.14849472, 37.91289139, -72.75650024, 4.33892727, -1.59795332, -102.38339996, 0.62661821, -0.01286392, 0.03822858, 0.77828199, -0.00763687, 0.04874138, -0.04704531, 0.00000000, 0.00000000, 0.00000000, 0.00000000
1, 0.3550, 125, -0.01500868, -0.13069102, -0.94348127, -8.10014343, -5.23451805, -18.02405739, -52.14849472, 37.91289139, -72.75650024, 4.31996155, -1.60760069, -102.42933655, 0.62631005, -0.01267934, 0.03815754, 0.77853650, -0.01304556, 0.05539457, -0.05328520, 0.00000000, 0.00000000, 0.00000000, 0.00000000
1, 0.3575, 126, -0.00877870, -0.13870719, -0.93714052, -8.66175556, -5.93082952, -18.45291519, -52.26541901, 36.74364090, -73.07804871, 4.29963398, -1.61891937, -102.47646332, 0.62599403, -0.01247561, 0.03808635, 0.77879739, -0.01947301, 0.06376480, -0.05964704, 0.00000000, 0.00000000, 0.00000000, 0.00000000
1, 0.3600, 127, -0.00914696, -0.14200889, -0.93387282, -8.80188179, -6.27940941, -18.52605057, -52.26541901, 36.74364090, -73.07804871, 4.27897263, -1.63110995, -102.52384186, 0.62567633, -0.01226410, 0.03801751, 0.77905929, -0.01931743, 0.06742638, -0.06293571, 0.00000000, 0.00000000, 0.00000000, 0.00000000
1, 0.3625, 128, -0.01220980, -0.14203778, -0.93243653, -8.58938599, -6.20793200, -18.59284210, -52.26541901, 36.74364090, -73.07804871, 4.25885725, -1.64312708, -102.57136536, 0.62535745, -0.01205676, 0.03795128, 0.77932173, -0.01646424, 0.06780569, -0.06439215, 0.00000000, 0.00000000, 0.00000000, 0.00000000
1, 0.3650, 129, -0.01075742, -0.14264841, -0.93072325, -8.02265644, -5.99389505, -18.79410553, -52.26541901, 36.74364090, -73.07804871, 4.24018192, -1.65458930, -102.61935425, 0.62503505, -0.01186096, 0.03789171, 0.77958637, -0.01811659, 0.06874169, -0.06612386, 0.00000000, 0.00000000, 0.00000000, 0.00000000
1, 0.3675, 130, -0.01061586, -0.14312099, -0.93230742, -7.31438065, -5.63909769, -19.06271744, -52.26541901, 36.74364090, -73.07804871, 4.22330236, -1.66513205, -102.66793823, 0.62470806, -0.01168107, 0.03783927, 0.77985370, -0.01844209, 0.06950831, -0.06455608, 0.00000000, 0.00000000, 0.00000000, 0.00000000
1, 0.3700, 131, -0.00975816, -0.14079225, -0.93484557, -6.53434753, -5.49233150, -19.40117836, -52.47003555, 38.02981567, -72.69804382, 4.20840693, -1.67526066, -102.71732330, 0.62437505, -0.01151458, 0.03779800, 0.78012478, -0.01947648, 0.06743912, -0.06203188, 0.00000000, 0.00000000, 0.00000000, 0.00000000
1, 0.3725, 132, -0.01043386, -0.13806602, -0.94311678, -5.89460611, -5.48449993, -19.88157082, -52.47003555, 38.02981567, -72.69804382, 4.19515419, -1.68529344, -102.76792145, 0.62403357, -0.01135733, 0.03776739, 0.78040171, -0.01897581, 0.06494386, -0.05377246, 0.00000000, 0.00000000, 0.00000000, 0.00000000
1, 0.3750, 133, -0.01320912, -0.13292982, -0.95090556, -5.03950357, -5.68086290, -20.77885818, -52.47003555, 38.02981567, -72.69804382, 4.18411493, -1.69566286, -102.82078552, 0.62367630, -0.01120912, 0.03775378, 0.78069001, -0.01638145, 0.06000010, -0.04599249, 0.00000000, 0.00000000, 0.00000000, 0.00000000
1, 0.3775, 134, -0.01113529, -0.12717675, -0.95621687, -4.39547873, -6.15652370, -21.74984550, -52.47003555, 38.02981567, -72.69804382, 4.17477036, -1.70705068, -102.87615967, 0.62330180, -0.01106237, 0.03775736, 0.78099096, -0.01865394, 0.05441004, -0.04068714, 0.00000000, 0.00000000, 0.00000000, 0.00000000
1, 0.3800, 135, -0.00442154, -0.12786505, -0.95616627, -3.75019979, -6.63035727, -22.93011856, -52.47003555, 38.02981567, -72.69804382, 4.16714144, -1.71941292, -102.93456268, 0.62290651, -0.01091729, 0.03777809, 0.78130746, -0.02558338, 0.05523157, -0.04074097, 0.00000000, 0.00000000, 0.00000000, 0.00000000
1, 0.3825, 136, -0.00195635, -0.12734179, -0.95930952, -3.38878632, -7.10699654, -23.97440147, -51.71002579, 38.38058853, -73.34112549, 4.16050911, -1.73278224, -102.99565125, 0.62249273, -0.01076985, 0.03781119, 0.78163749, -0.02828179, 0.05482420, -0.03759915, 0.00000000, 0.00000000, 0.00000000, 0.00000000
1, 0.3850, 137, -0.00086578, -0.12404311, -0.96159726, -3.16947007, -7.37539005, -25.01947403, -51.71002579, 38.38058853, -73.34112549, 4.15452147, -1.74663734, -103.05940247, 0.62206066, -0.01062168, 0.03785142, 0.78198153, -0.02961406, 0.05163026, -0.03531165, 0.00000000, 0.00000000, 0.00000000, 0.00000000
1, 0.3875, 138, 0.00259564, -0.12740640, -0.96329123, -2.88062024, -7.50524759, -25.92350006, -51.71002579, 38.38058853, -73.34112549, 4.14934111, -1.76065922, -103.12542725, 0.62161273, -0.01047595, 0.03789812, 0.78233731, -0.03332010, 0.05508421, -0.03361678, 0.00000000, 0.00000000, 0.00000000, 0.00000000
1, 0.3900, 139, 0.01086836, -0.12883872, -0.95982265, -2.73531461, -7.35900784, -26.61871529, -51.71002579, 38.38058853, -73.34112549, 4.15412140, -1.76762486, -103.19351959, 0.62114847, -0.01043172, 0.03797470, 0.78270286, -0.04171433, 0.05643363, -0.03707552, 0.00000000, 0.00000000, 0.00000000, 0.00000000
1, 0.3925, 140, 0.01131270, -0.12886965, -0.95531410, -2.66446733, -6.93870926, -26.82518768, -51.71002579, 38.38058853, -73.34112549, 4.14957047, -1.78007114, -103.26168823, 0.62068516, -0.01029935, 0.03801712, 0.78306997, -0.04237580, 0.05654422, -0.04158312, 0.00000000, 0.00000000, 0.00000000, 0.00000000
1, 0.3950, 141, 0.01553270, -0.13721530, -0.95520097, -2.59342670, -6.58809137, -27.03198433, -51.79771805, 38.20520401, -72.69804382, 4.14522600, -1.79161131, -103.33031464, 0.62021840, -0.01017410, 0.03805595, 0.78343952, -0.04679710, 0.06496591, -0.04169559, 0.00000000, 0.00000000, 0.00000000, 0.00000000
1, 0.3975, 142, 0.02046288, -0.14447415, -0.95385897, -2.17004633, -6.16763687, -27.02475548, -51.79771805, 38.20520401, -72.69804382, 4.14195061, -1.80210853, -103.39884949, 0.61975175, -0.01006176, 0.03809631, 0.78380823, -0.05191042, 0.07228219, -0.04303587, 0.00000000, 0.00000000, 0.00000000, 0.00000000
1, 0.4000, 143, 0.01656013, -0.14498591, -0.95340598, -1.32576346, -5.19041348, -26.66084480, -51.79771805, 38.20520401, -72.69804382, 4.14076185, -1.81023729, -103.46629333, 0.61929172, -0.00997723, 0.03813796, 0.78417075, -0.04814946, 0.07281495, -0.04348588, 0.00000000, 0.00000000, 0.00000000, 0.00000000
1, 0.4025, 144, 0.01001751, -0.13946734, -0.95038652, -0.19851059, -4.49153709, -26.15516663, -51.79771805, 38.20520401, -72.69804382, 4.14235640, -1.81671488, -103.53234863, 0.61884052, -0.00991947, 0.03818955, 0.78452516, -0.04171985, 0.06726890, -0.04649986, 0.00000000, 0.00000000, 0.00000000, 0.00000000
1, 0.4050, 145, 0.00139672, -0.12798025, -0.95234543, 0.99966383, -4.00191021, -25.57980728, -51.79771805, 38.20520401, -72.69804382, 4.14690447, -1.82207179, -103.59688568, 0.61839902, -0.00988578, 0.03825515, 0.78487039, -0.03319250, 0.05570287, -0.04453224, 0.00000000, 0.00000000, 0.00000000, 0.00000000
1, 0.4075, 146, -0.01066613, -0.11555748, -0.95237917, 2.26823735, -3.23256183, -25.07204056, -51.59310150, 37.94212341, -73.07804871, 4.15458441, -1.82559514, -103.66001892, 0.61796647, -0.00988195, 0.03833219, 0.78520733, -0.02119112, 0.04314664, -0.04448683, 0.00000000, 0.00000000, 0.00000000, 0.00000000
1, 0.4100, 147, -0.01880333, -0.10822339, -0.95009375, 3.04147935, -2.60595727, -24.50133514, -51.59310150, 37.94212341, -73.07804871, 4.16415119, -1.82765019, -103.72161865, 0.61754382, -0.00989880, 0.03841414, 0.78553557, -0.01308977, 0.03564617, -0.04675902, 0.00000000, 0.00000000, 0.00000000, 0.00000000
1, 0.4125, 148, -0.02110156, -0.10159906, -0.94557333, 3.60164332, -1.84179294, -23.86287308, -51.59310150, 37.94212341, -73.07804871, 4.17506456, -1.82790542, -103.78147888, 0.61713243, -0.00993576, 0.03849551, 0.78585428, -0.01079598, 0.02883197, -0.05126548, 0.00000000, 0.00000000, 0.00000000, 0.00000000
1, 0.4150, 149, -0.02233770, -0.10027568, -0.94508946, 3.73603892, -0.94186831, -23.08953285, -51.59310150, 37.94212341, -73.07804871, 4.18624687, -1.82604575, -103.83924103, 0.61673492, -0.00998930, 0.03856724, 0.78616208, -0.00952741, 0.02731397, -0.05173612, 0.00000000, 0.00000000, 0.00000000, 0.00000000
1, 0.4175, 150, -0.02272099, -0.10004712, -0.94350851, 3.51642442, -0.11421469, -22.25116539, -51.59310150, 37.94212341, -73.07804871, 4.19680595, -1.82226455, -103.89477539, 0.61635238, -0.01005338, 0.03862424, 0.78645855, -0.00907817, 0.02690156, -0.05330576, 0.00000000, 0.00000000, 0.00000000, 0.00000000
1, 0.4200, 151, -0.02343551, -0.10064875, -0.94473499, 3.22688746, 0.71425986, -21.55320549, -52.79158020, 36.01286316, -73.10727692, 4.20657635, -1.81653595, -103.94840240, 0.61598241, -0.01012719, 0.03866527, 0.78674537, -0.00826370, 0.02733299, -0.05206980, 0.00000000, 0.00000000, 0.00000000, 0.00000000
1, 0.4225, 152, -0.02158272, -0.09573427, -0.95163524, 3.21829104, 1.54127705, -20.50290489, -52.79158020, 36.01286316, -73.10727692, 4.21623087, -1.80892944, -103.99925995, 0.61563104, -0.01021419, 0.03869526, 0.78701770, -0.00998380, 0.02225022, -0.04516149, 0.00000000, 0.00000000, 0.00000000, 0.00000000
1, 0.4250, 153, -0.02831364, -0.08321217, -0.96075743, 3.35279131, 1.95162177, -19.52253342, -52.79158020, 36.01286316, -73.10727692, 4.22613478, -1.80047131, -104.04759979, 0.61529666, -0.01030921, 0.03872227, 0.78727651, -0.00310533, 0.00955547, -0.03603119, 0.00000000, 0.00000000, 0.00000000, 0.00000000
1, 0.4275, 154, -0.03456292, -0.06947065, -0.97035670, 3.77454495, 1.60012710, -18.89098358, -52.79158020, 36.01286316, -73.10727692, 4.23704004, -1.79299724, -104.09442902, 0.61497271, -0.01040332, 0.03876137, 0.78752655, 0.00327432, -0.00437607, -0.02642196, 0.00000000, 0.00000000, 0.00000000, 0.00000000
1, 0.4300, 155, -0.04008491, -0.05694962, -0.97837329, 3.63432884, 0.83164608, -18.75676727, -52.79158020, 36.01286316, -73.10727692, 4.24758244, -1.78745544, -104.14105988, 0.61465025, -0.01048223, 0.03880839, 0.78777480, 0.00889300, -0.01708074, -0.01839483, 0.00000000, 0.00000000, 0.00000000, 0.00000000
1, 0.4325, 156, -0.04316515, -0.05027460, -0.98128629, 3.07223964, -0.14520834, -18.97762489, -52.09003067, 35.98363113, -72.96112061, 4.25673962, -1.78429997, -104.18841553, 0.61432326, -0.01053699, 0.03885880, 0.78802669, 0.01202829, -0.02391519, -0.01547170, 0.00000000, 0.00000000, 0.00000000, 0.00000000
1, 0.4350, 157, -0.04147402, -0.04991073, -0.97993147, 2.08521795, -0.98508453, -19.20313263, -52.09003067, 35.98363113, -72.96112061, 4.26344919, -1.78318989, -104.23649597, 0.61399174, -0.01056428, 0.03890344, 0.78828239, 0.01035652, -0.02439583, -0.01681847, 0.00000000, 0.00000000, 0.00000000, 0.00000000
1, 0.4375, 158, -0.04123452, -0.05272184, -0.97689986, 0.74134994, -1.48159254, -19.08263016, -52.09003067, 35.98363113, -72.96112061, 4.26679230, -1.78333533, -104.28437042, 0.61366206, -0.01056493, 0.03893163, 0.78853762, 0.01011449, -0.02164287, -0.01984560, 0.00000000, 0.00000000, 0.00000000, 0.00000000
1, 0.4400, 159, -0.04345573, -0.05312145, -0.97387582, -0.46325684, -1.77070522, -18.68034744, -52.09003067, 35.98363113, -72.96112061, 4.26158333, -1.78797114, -104.33109283, 0.61334175, -0.01048923, 0.03892485, 0.78878814, 0.01225483, -0.02115244, -0.02287382, 0.00000000, 0.00000000, 0.00000000, 0.00000000
1, 0.4425, 160, -0.04424291, -0.06477176, -0.95750403, -1.31994200, -1.15687644, -17.71136284, -52.09003067, 35.98363113, -72.96112061, 4.25966835, -1.78756595, -104.37548065, 0.61303627, -0.01046670, 0.03891357, 0.78902650, 0.01304907, -0.00946885, -0.03924835, 0.00000000, 0.00000000, 0.00000000, 0.00000000
1, 0.4450, 161, -0.02389018, -0.07461102, -0.97200155, -1.54579532, -0.19838786, -15.89567947, -52.55773163, 36.36363602, -72.78573608, 4.25704050, -1.78510988, -104.41517639, 0.61276275, -0.01045611, 0.03888598, 0.78924036, -0.00726082, 0.00041603, -0.02475560, 0.00000000, 0.00000000, 0.00000000, 0.00000000
1, 0.4475, 162, -0.04138804, -0.03650310, -0.98850715, -1.83512282, -0.34907356, -14.78365421, -52.55773163, 36.36363602, -72.78573608, 4.25360394, -1.78323770, -104.45211029, 0.61250830, -0.01043811, 0.03885567, 0.78943962, 0.01026971, -0.03763216, -0.00825542, 0.00000000, 0.00000000, 0.00000000, 0.00000000
1, 0.4500, 163, -0.05468766, -0.02202466, -0.98866212, -2.74673057, -0.90192235, -15.91390419, -52.55773163, 36.36363602, -72.78573608, 4.24797678, -1.78253758, -104.49198151, 0.61223406, -0.01039936, 0.03881679, 0.78965479, 0.02358155, -0.05201276, -0.00810814, 0.00000000, 0.00000000, 0.00000000, 0.00000000
1, 0.4525, 164, -0.04446951, -0.03471445, -0.98681819, -4.36861324, -1.39271128, -16.63408279, -52.55773163, 36.36363602, -72.78573608, 4.23835468, -1.78293312, -104.53372192, 0.61194724, -0.01033110, 0.03875636, 0.78988087, 0.01335649, -0.03915554, -0.00996423, 0.00000000, 0.00000000, 0.00000000, 0.00000000
1, 0.4550, 165, -0.03591163, -0.04392990, -0.98046482, -5.85847378, -1.33684146, -16.02443314, -52.55773163, 36.36363602, -72.78573608, 4.22495985, -1.78331041, -104.57394409, 0.61167127, -0.01024339, 0.03866964, 0.79010004, 0.00479203, -0.02970704, -0.01633471, 0.00000000, 0.00000000, 0.00000000, 0.00000000
1, 0.4575, 166, -0.02687876, -0.06441691, -0.97501755, -6.64162540, -1.41818953, -15.19731331, -52.44080734, 35.19438553, -72.52265167, 4.20954370, -1.78405249, -104.61210632, 0.61140954, -0.01014314, 0.03857068, 0.79030865, -0.00425379, -0.00895181, -0.02180123, 0.00000000, 0.00000000, 0.00000000, 0.00000000
1, 0.4600, 167, -0.04503725, -0.06573575, -0.97529238, -6.50515556, -1.56466889, -14.28927898, -52.44080734, 35.19438553, -72.52265167, 4.19440031, -1.78533626, -104.64803314, 0.61116332, -0.01004141, 0.03847623, 0.79050505, 0.01388231, -0.00736945, -0.02154512, 0.00000000, 0.00000000, 0.00000000, 0.00000000
1, 0.4625, 168, -0.07073048, -0.03416826, -0.98337424, -5.79065657, -2.39015436, -15.05170536, -52.44080734, 35.19438553, -72.52265167, 4.18110800, -1.78854787, -104.68601990, 0.61090297, -0.00993562, 0.03840494, 0.79071110, 0.03951952, -0.03870555, -0.01347834, 0.00000000, 0.00000000, 0.00000000, 0.00000000
1, 0.4650, 169, -0.07264549, -0.02948245, -0.97886062, -5.48995638, -3.76205897, -17.35677719, -52.44080734, 35.19438553, -72.52265167, 4.16875887, -1.79476988, -104.72999573, 0.61060154, -0.00981209, 0.03835661, 0.79094774, 0.04132598, -0.04317625, -0.01800442, 0.00000000, 0.00000000, 0.00000000, 0.00000000
1, 0.4675, 170, -0.06481612, -0.04236379, -0.96948779, -5.83322144, -4.37836981, -18.82910156, -52.44080734, 35.19438553, -72.52265167, 4.15567446, -1.80227041, -104.77776337, 0.61027420, -0.00967459, 0.03831024, 0.79120427, 0.03336577, -0.03006697, -0.02738965, 0.00000000, 0.00000000, 0.00000000, 0.00000000
1, 0.4700, 171, -0.05381730, -0.05852509, -0.95694053, -6.54160070, -4.24358702, -18.76752090, -52.11926270, 36.77287292, -72.55188751, 4.14082050, -1.80945730, -104.82535553, 0.60994804, -0.00952993, 0.03824987, 0.79146051, 0.02224157, -0.01364693, -0.03995169, 0.00000000, 0.00000000, 0.00000000, 0.00000000
1, 0.4725, 172, -0.03960060, -0.07597457, -0.94802666, -7.25674152, -3.48899770, -17.86589241, -52.11926270, 36.77287292, -72.55188751, 4.12410784, -1.81493855, -104.87055206, 0.60963804, -0.00938803, 0.03816727, 0.79170489, 0.00792926, 0.00409355, -0.04888356, 0.00000000, 0.00000000, 0.00000000, 0.00000000
1, 0.4750, 173, -0.04244960, -0.08838908, -0.94470376, -7.19644642, -2.59434032, -16.53533363, -52.11926270, 36.77287292, -72.55188751, 4.10743952, -1.81844115, -104.91226959, 0.60935169, -0.00926127, 0.03807409, 0.79193121, 0.01071715, 0.01679822, -0.05222541, 0.00000000, 0.00000000, 0.00000000, 0.00000000
1, 0.4775, 174, -0.04763315, -0.09106001, -0.94853377, -6.56697226, -1.76192689, -15.68637848, -52.11926270, 36.77287292, -72.55188751, 4.09227514, -1.82003105, -104.95172119, 0.60908049, -0.00915656, 0.03798088, 0.79214555, 0.01587297, 0.01973307, -0.04841340, 0.00000000, 0.00000000, 0.00000000, 0.00000000
1, 0.4800, 175, -0.04629327, -0.08677860, -0.95227563, -5.36882830, -1.41226709, -15.04190159, -52.11926270, 36.77287292, -72.55188751, 4.08005333, -1.82087314, -104.98950195, 0.60882044, -0.00907327, 0.03790386, 0.79235017, 0.01451840, 0.01566435, -0.04468632, 0.00000000, 0.00000000, 0.00000000, 0.00000000
1, 0.4825, 176, -0.04495413, -0.08029934, -0.95795447, -4.16843033, -1.26920962, -14.67744255, -52.55773163, 36.94826126, -72.55188751, 4.07080269, -1.82143021, -105.02634430, 0.60856640, -0.00900810, 0.03784575, 0.79254872, 0.01316954, 0.00934608, -0.03901869, 0.00000000, 0.00000000, 0.00000000, 0.00000000
1, 0.4850, 177, -0.04879627, -0.07157579, -0.95964545, -3.31981921, -1.54499245, -14.45885086, -52.55773163, 36.94826126, -72.55188751, 4.06365919, -1.82271922, -105.06269073, 0.60831583, -0.00894925, 0.03780602, 0.79274374, 0.01698919, 0.00074688, -0.03733582, 0.00000000, 0.00000000, 0.00000000, 0.00000000
1, 0.4875, 178, -0.05226237, -0.07139166, -0.95455849, -3.10802460, -1.82434523, -14.24820423, -52.55773163, 36.94826126, -72.55188751, 4.05703068, -1.82474697, -105.09855652, 0.60806847, -0.00888820, 0.03777370, 0.79293561, 0.02041992, 0.00067817, -0.04242980, 0.00000000, 0.00000000, 0.00000000, 0.00000000
1, 0.4900, 179, -0.05436804, -0.07094060, -0.95165092, -3.11194992, -1.62017834, -13.68913746, -52.55773163, 36.94826126, -72.55188751, 4.05147123, -1.83394122, -105.13265991, 0.60783440, -0.00878378, 0.03778656, 0.79311568, 0.02236521, 0.00032421, -0.04533917, 0.00000000, 0.00000000, 0.00000000, 0.00000000
1, 0.4925, 180, -0.05917806, -0.06612513, -0.95056927, -3.04531145, -1.34593546, -13.12886906, -52.55773163, 36.94826126, -72.55188751, 4.04491425, -1.83498085, -105.16565704, 0.60760671, -0.00873093, 0.03774920, 0.79329252, 0.02715709, -0.00437712, -0.04642832, 0.00000000, 0.00000000, 0.00000000, 0.00000000
1, 0.4950, 181, -0.06166600, -0.05762807, -0.95334637, -2.90546823, -1.34757745, -12.84805298, -51.94387436, 37.00672150, -73.07804871, 4.03868484, -1.83607757, -105.19794464, 0.60738367, -0.00867967, 0.03771433, 0.79346538, 0.02962591, -0.01276576, -0.04365826, 0.00000000, 0.00000000, 0.00000000, 0.00000000
1, 0.4975, 182, -0.05853827, -0.05055899, -0.95535493, -2.69486785, -1.34882247, -12.56635475, -51.94387436, 37.00672150, -73.07804871, 4.03296041, -1.83722997, -105.22954559, 0.60716552, -0.00863095, 0.03768317, 0.79363436, 0.02647807, -0.01973516, -0.04165602, 0.00000000, 0.00000000, 0.00000000, 0.00000000
1, 0.5000, 183, -0.05059420, -0.04927754, -0.95820665, -2.69818091, -1.21372592, -12.07737350, -51.94387436, 37.00672150, -73.07804871, 4.02718830, -1.83813500, -105.25988007, 0.60695595, -0.00858412, 0.03765025, 0.79379678, 0.01851820, -0.02091613, -0.03881091, 0.00000000, 0.00000000, 0.00000000, 0.00000000
1, 0.5025, 184, -0.04533293, -0.04788967, -0.96120113, -2.77289319, -1.14992285, -11.45007229, -51.94387436, 37.00672150, -73.07804871, 4.02117872, -1.83899367, -105.28865814, 0.60675722, -0.00853689, 0.03761531, 0.79395092, 0.01324197, -0.02219940, -0.03582329, 0.00000000, 0.00000000, 0.00000000, 0.00000000
1, 0.5050, 185, -0.04141095, -0.04516451, -0.96566069, -3.20142245, -1.22806990, -10.75806522, -51.94387436, 37.00672150, -73.07804871, 4.01404285, -1.84017205, -105.31571198, 0.60657042, -0.00848207, 0.03757411, 0.79409605, 0.00929942, -0.02480034, -0.03137189, 0.00000000, 0.00000000, 0.00000000, 0.00000000
1, 0.5075, 186, -0.03562472, -0.04753106, -0.96903551, -3.84080577, -1.51522672, -10.20919609, -52.41157532, 36.83133698, -72.69804382, 4.00526810, -1.84216607, -105.34144592, 0.60639304, -0.00841336, 0.03752573, 0.79423457, 0.00347841, -0.02228101, -0.02800655, 0.00000000, 0.00000000, 0.00000000, 0.00000000
1, 0.5100, 187, -0.02582246, -0.05000255, -0.97140431, -4.55175257, -1.66403091, -9.59080505, -52.41157532, 36.83133698, -72.69804382, 3.99466729, -1.84464371, -105.36566925, 0.60622633, -0.00833216, 0.03746711, 0.79436547, -0.00636708, -0.01962496, -0.02564931, 0.00000000, 0.00000000, 0.00000000, 0.00000000
1, 0.5250, 188, -0.00525461, -0.07671744, -0.96747881, -7.38865900, -2.31918550, -8.23375607, -51.76848984, 36.53902435, -73.10727692, 3.89931321, -1.86621690, -105.48928070, 0.60537905, -0.00763819, 0.03692831, 0.79504359, -0.02731126, 0.00875020, -0.02967710, 0.00000000, 0.00000000, 0.00000000, 0.00000000
1, 0.5275, 189, 0.00196226, -0.08374201, -0.96319497, -7.38965893, -2.11075664, -8.16302681, -51.76848984, 36.53902435, -73.10727692, 3.88151455, -1.87009704, -105.51000977, 0.60523695, -0.00751056, 0.03682665, 0.79515761, -0.03459580, 0.01608469, -0.03397977, 0.00000000, 0.00000000, 0.00000000, 0.00000000
1, 0.5300, 190, 0.01276556, -0.09314969, -0.96181667, -7.32026005, -1.62260675, -8.15989017, -51.76848984, 36.53902435, -73.10727692, 3.86388803, -1.87276638, -105.53065491, 0.60509527, -0.00739231, 0.03671975, 0.79527152, -0.04544567, 0.02579924, -0.03537738, 0.00000000, 0.00000000, 0.00000000, 0.00000000
1, 0.5325, 191, 0.02032311, -0.10107465, -0.96666664, -7.10812235, -1.27180350, -8.29515743, -51.82695007, 36.15901566, -72.75650024, 3.84680152, -1.87454438, -105.55156708, 0.60495144, -0.00728305, 0.03661188, 0.79538691, -0.05303424, 0.03402167, -0.03054637, 0.00000000, 0.00000000, 0.00000000, 0.00000000
1, 0.5350, 192, 0.02347411, -0.11352912, -0.95318949, -6.82439137, -0.91938621, -8.56906605, -51.82695007, 36.15901566, -72.75650024, 3.83044577, -1.87540388, -105.57311249, 0.60480309, -0.00718387, 0.03650423, 0.79550558, -0.05620023, 0.04676083, -0.04404223, 0.00000000, 0.00000000, 0.00000000, 0.00000000
1, 0.5375, 193, 0.03219556, -0.13003962, -0.94443691, -6.40281677, -0.15175359, -8.42070389, -51.82695007, 36.15901566, -72.75650024, 3.81512737, -1.87437892, -105.59414673, 0.60465783, -0.00710346, 0.03639379, 0.79562181, -0.06490381, 0.06353792, -0.05281319, 0.00000000, 0.00000000, 0.00000000, 0.00000000
1, 0.5400, 194, 0.03175239, -0.14124423, -0.93877506, -5.84545898, 1.16801703, -7.57037401, -51.82695007, 36.15901566, -72.75650024, 3.83191681, -1.84572184, -105.61412811, 0.60451382, -0.00738485, 0.03636065, 0.79573011, -0.06396073, 0.07444921, -0.05847168, 0.00000000, 0.00000000, 0.00000000, 0.00000000
1, 0.5425, 195, 0.02396137, -0.14494349, -0.93690854, -5.07766390, 2.69618893, -6.50714350, -51.82695007, 36.15901566, -72.75650024, 3.81972957, -1.83791065, -105.62991333, 0.60440385, -0.00736985, 0.03623590, 0.79581952, -0.05603346, 0.07836031, -0.06035681, 0.00000000, 0.00000000, 0.00000000, 0.00000000
1, 0.5450, 196, 0.01770198, -0.14342336, -0.93427247, -4.02107906, 3.81456923, -6.20970297, -51.73925781, 36.62671661, -72.81496429, 3.81015182, -1.82736242, -105.64477539, 0.60429972, -0.00738797, 0.03611478, 0.79590398, -0.04959007, 0.07700650, -0.06300975, 0.00000000, 0.00000000, 0.00000000, 0.00000000
1, 0.5475, 197, 0.01770198, -0.14342336, -0.93427247, -4.02107906, 3.81456923, -6.20970297, -51.73925781, 36.62671661, -72.81496429, 3.80057263, -1.81681681, -105.65963745, 0.60419554, -0.00740608, 0.03599367, 0.79598838, -0.04940610, 0.07717285, -0.06302674, 0.00000000, 0.00000000, 0.00000000, 0.00000000
1, 0.5500, 198, 0.00699792, -0.15381855, -0.91517377, -0.11945342, 5.52999210, -8.59511948, -51.73925781, 36.62671661, -72.81496429, 3.80092168, -1.80159807, -105.68017578, 0.60405064, -0.00750729, 0.03591731, 0.79610085, -0.03843655, 0.08756140, -0.08213343, 0.00000000, 0.00000000, 0.00000000, 0.00000000
1, 0.5525, 199, 0.00699792, -0.15381855, -0.91517377, -0.11945342, 5.52999210, -8.59511948, -51.73925781, 36.62671661, -72.81496429, 3.80126619, -1.78637898, -105.70070648, 0.60390568, -0.00760850, 0.03584095, 0.79621333, -0.03817107, 0.08755485, -0.08214135, 0.00000000, 0.00000000, 0.00000000, 0.00000000
1, 0.5550, 200, 0.02077655, -0.16124514, -0.93312120, 1.78793645, 7.84498358, -9.11876297, -51.91464615, 36.62671661, -72.84420013, 3.80640078, -1.76529789, -105.72216034, 0.60375309, -0.00777546, 0.03576714, 0.79633063, -0.05158192, 0.09489129, -0.06419933, 0.00000000, 0.00000000, 0.00000000, 0.00000000
1, 0.5575, 201, 0.02077655, -0.16124514, -0.93312120, 1.78793645, 7.84498358, -9.11876297, -51.91464615, 36.27594376, -72.84420013, 3.81152821, -1.74421453, -105.74360657, 0.60360050, -0.00794241, 0.03569332, 0.79644799, -0.05121412, 0.09480130, -0.06420463, 0.00000000, 0.00000000, 0.00000000, 0.00000000
1, 0.5600, 202, -0.00288278, -0.13519207, -0.93208283, 2.94041157, 7.32129335, -12.24652958, -51.91464615, 36.27594376, -72.84420013, 3.81976676, -1.72391415, -105.77295685, 0.60339290, -0.00811788, 0.03564588, 0.79660571, -0.02720065, 0.06860410, -0.06524414, 0.00000000, 0.00000000, 0.00000000, 0.00000000
1, 0.5625, 203, -0.00288278, -0.13519207, -0.93208283, 2.94041157, 7.32129335, -12.24652958, -51.91464615, 36.27594376, -72.84420013, 3.82799530, -1.70361042, -105.80229950, 0.60318518, -0.00829335, 0.03559843, 0.79676324, -0.02684643, 0.06846017, -0.06524515, 0.00000000, 0.00000000, 0.00000000, 0.00000000
1, 0.5650, 204, -0.00204920, -0.13373703, -0.93133813, 2.96836495, 6.17266750, -16.36798859, -51.91464615, 36.27594376, -72.84420013, 3.83659363, -1.68547821, -105.84210205, 0.60290492, -0.00845242, 0.03556584, 0.79697520, -0.02736370, 0.06685486, -0.06598903, 0.00000000, 0.00000000, 0.00000000, 0.00000000
1, 0.5675, 205, -0.00199347, -0.13439851, -0.92391366, 3.33286715, 5.49064445, -17.83181000, -51.47617722, 35.60362244, -72.40573120, 3.84620118, -1.66879606, -105.88568878, 0.60259843, -0.00860556, 0.03554828, 0.79720604, -0.02712839, 0.06734852, -0.07341094, 0.00000000, 0.00000000, 0.00000000, 0.00000000
1, 0.5700, 206, -0.00354278, -0.13630594, -0.91334283, 3.97836971, 5.08709860, -19.08152199, -51.47617722, 35.60362244, -72.40573120, 3.85750318, -1.65290248, -105.93244934, 0.60226965, -0.00876114, 0.03554701, 0.79745275, -0.02530180, 0.06905868, -0.08397651, 0.00000000, 0.00000000, 0.00000000, 0.00000000
1, 0.5725, 207, -0.00461212, -0.13946597, -0.91336757, 4.62242508, 4.75140524, -20.12162781, -51.47617722, 35.60362244, -72.40573120, 3.87047744, -1.63766122, -105.98185730, 0.60192239, -0.00892014, 0.03556115, 0.79771262, -0.02396657, 0.07199235, -0.08394414, 0.00000000, 0.00000000, 0.00000000, 0.00000000
1, 0.5750, 208, -0.00513851, -0.13766682, -0.91104919, 5.19324493, 4.55162907, -20.81315804, -51.47617722, 35.60362244, -72.40573120, 3.88491607, -1.62278962, -106.03302002, 0.60156262, -0.00908370, 0.03558771, 0.79798090, -0.02318072, 0.06994139, -0.08625288, 0.00000000, 0.00000000, 0.00000000, 0.00000000
1, 0.5775, 209, -0.00335451, -0.14013398, -0.90410703, 5.61684895, 5.04237223, -20.87537003, -51.47617722, 35.60362244, -72.40573120, 3.90040231, -1.60666966, -106.08424377, 0.60120195, -0.00926141, 0.03561517, 0.79824942, -0.02468349, 0.07213847, -0.09318455, 0.00000000, 0.00000000, 0.00000000, 0.00000000
1, 0.5800, 210, -0.00534633, -0.14432964, -0.89610845, 6.10416603, 5.80309486, -19.88897324, -51.97310638, 36.18824768, -73.34112549, 3.91701889, -1.58880687, -106.13288116, 0.60085881, -0.00945798, 0.03564134, 0.79850423, -0.02238002, 0.07604428, -0.10117209, 0.00000000, 0.00000000, 0.00000000, 0.00000000
1, 0.5825, 211, -0.00280797, -0.14469855, -0.89341110, 6.94034529, 6.97839785, -18.26837158, -51.97310638, 36.18824768, -73.34112549, 3.93559217, -1.56827450, -106.17726135, 0.60054451, -0.00968474, 0.03566699, 0.79873675, -0.02456016, 0.07608923, -0.10385710, 0.00000000, 0.00000000, 0.00000000, 0.00000000
1, 0.5850, 212, -0.01052697, -0.14122991, -0.89296854, 8.12944508, 8.01449871, -16.43471336, -51.97310638, 36.18824768, -73.34112549, 3.95699215, -1.54545820, -106.21688843, 0.60026264, -0.00994369, 0.03570018, 0.79894406, -0.01644309, 0.07224739, -0.10428479, 0.00000000, 0.00000000, 0.00000000, 0.00000000
1, 0.5875, 213, -0.01829785, -0.14466922, -0.89341402, 9.74344730, 8.77365494, -14.52728558, -51.97310638, 36.18824768, -73.34112549, 3.98228002, -1.52106285, -106.25160217, 0.60001409, -0.01023553, 0.03575196, 0.79912460, -0.00824657, 0.07524576, -0.10382009, 0.00000000, 0.00000000, 0.00000000, 0.00000000
1, 0.5900, 214, -0.04329111, -0.13241951, -0.88052446, 11.64176464, 9.67619038, -12.89473343, -51.97310638, 36.18824768, -73.34112549, 4.02381849, -1.49800599, -106.28189850, 0.59979498, -0.01060443, 0.03592386, 0.79927653, 0.01714896, 0.06227235, -0.11666960, 0.00000000, 0.00000000, 0.00000000, 0.00000000
1, 0.5925, 215, -0.04277432, -0.12005841, -0.89482486, 13.68410301, 10.58317280, -11.67898941, -52.14849472, 34.37591171, -73.19496918, 4.05873537, -1.46955621, -106.30916595, 0.59959644, -0.01097719, 0.03602128, 0.79941618, 0.01712855, 0.04930267, -0.10233900, 0.00000000, 0.00000000, 0.00000000, 0.00000000
1, 0.5950, 216, -0.03615440, -0.08411299, -0.94377881, 15.24230289, 8.98501873, -11.17864227, -52.14849472, 34.37591171, -73.19496918, 4.09750938, -1.44516313, -106.33545685, 0.59940481, -0.01134207, 0.03616690, 0.79954815, 0.01093423, 0.01268165, -0.05334783, 0.00000000, 0.00000000, 0.00000000, 0.00000000
1, 0.5975, 217, -0.05021459, -0.05292875, -0.95627409, 15.89629555, 6.28510523, -12.78779602, -52.14849472, 34.37591171, -73.19496918, 4.13802147, -1.42719543, -106.36621857, 0.59918272, -0.01166967, 0.03635883, 0.79970115, 0.02530791, -0.01920817, -0.04080963, 0.00000000, 0.00000000, 0.00000000, 0.00000000
1, 0.6000, 218, -0.04920110, -0.05729042, -0.95616639, 14.71661377, 3.37375712, -15.32777596, -52.14849472, 34.37591171, -73.19496918, 4.17574644, -1.41600561, -106.40383911, 0.59891421, -0.01193306, 0.03656758, 0.79988897, 0.02448966, -0.01550335, -0.04087448, 0.00000000, 0.00000000, 0.00000000, 0.00000000
1, 0.6025, 219, -0.03963717, -0.06659859, -0.95284939, 12.25856686, 0.79818451, -17.25416756, -52.14849472, 34.37591171, -73.19496918, 4.20745087, -1.41086268, -106.44672394, 0.59861046, -0.01212093, 0.03676658, 0.80010432, 0.01501547, -0.00674704, -0.04415322, 0.00000000, 0.00000000, 0.00000000, 0.00000000
1, 0.6050, 220, -0.03646003, -0.07060540, -0.94980025, 9.72316551, -1.36762452, -18.27259636, -51.94387436, 35.54516220, -72.55188751, 4.23288679, -1.41091096, -106.49253845, 0.59828782, -0.01223869, 0.03694933, 0.80033541, 0.01183749, -0.00318282, -0.04716970, 0.00000000, 0.00000000, 0.00000000, 0.00000000
1, 0.6075, 221, -0.03631395, -0.07131874, -0.95162916, 7.47024155, -3.18284249, -19.35564995, -51.94387436, 35.54516220, -72.55188751, 4.25276709, -1.41526675, -106.54139709, 0.59794527, -0.01229622, 0.03711614, 0.80058277, 0.01161541, -0.00281527, -0.04531325, 0.00000000, 0.00000000, 0.00000000, 0.00000000
1, 0.6100, 222, -0.03944054, -0.07362365, -0.95410132, 5.64311552, -4.99385405, -20.64269257, -51.94387436, 35.54516220, -72.55188751, 4.26817322, -1.42388332, -106.59380341, 0.59757912, -0.01229933, 0.03727430, 0.80084872, 0.01459166, -0.00077815, -0.04281736, 0.00000000, 0.00000000, 0.00000000, 0.00000000
1, 0.6125, 223, -0.04069738, -0.07832900, -0.95851886, 4.16941881, -6.52355719, -21.99379921, -51.94387436, 35.54516220, -72.55188751, 4.27999640, -1.43604910, -106.64987183, 0.59718835, -0.01225759, 0.03742630, 0.80113369, 0.01563623, 0.00372189, -0.03837920, 0.00000000, 0.00000000, 0.00000000, 0.00000000
1, 0.6150, 224, -0.03785086, -0.08072282, -0.96057808, 2.90679979, -7.77396297, -23.27120781, -51.94387436, 35.54516220, -72.55188751, 4.28876162, -1.45108378, -106.70935059, 0.59677440, -0.01217859, 0.03757216, 0.80143642, 0.01252739, 0.00596369, -0.03630197, 0.00000000, 0.00000000, 0.00000000, 0.00000000
1, 0.6175, 225, -0.03410250, -0.08942515, -0.96180999, 1.85422945, -8.67660904, -24.33507156, -52.20695496, 34.08359909, -73.16574097, 4.29498434, -1.46816158, -106.77165985, 0.59634125, -0.01207097, 0.03771107, 0.80175394, 0.00848106, 0.01455833, -0.03505433, 0.00000000, 0.00000000, 0.00000000, 0.00000000
1, 0.6200, 226, -0.02251115, -0.10525789, -0.96033633, 1.00961840, -9.23453903, -24.83657455, -52.20695496, 34.08359909, -73.16574097, 4.29914999, -1.48653126, -106.83531952, 0.59589887, -0.01194301, 0.03784233, 0.80207849, -0.00343079, 0.03031921, -0.03651434, 0.00000000, 0.00000000, 0.00000000, 0.00000000
1, 0.6225, 227, -0.01763890, -0.11967365, -0.95903140, 0.30243245, -9.37786484, -24.84604454, -52.20695496, 34.08359909, -73.16574097, 4.30156994, -1.50525224, -106.89904022, 0.59545618, -0.01180335, 0.03796306, 0.80240351, -0.00862968, 0.04469351, -0.03780752, 0.00000000, 0.00000000, 0.00000000, 0.00000000
1, 0.6250, 228, -0.01573864, -0.13011131, -0.95675600, 0.01982081, -9.37884235, -24.91933632, -52.20695496, 34.08359909, -73.16574097, 4.30330849, -1.52395999, -106.96293640, 0.59501213, -0.01166006, 0.03807882, 0.80272949, -0.01085633, 0.05510157, -0.04007208, 0.00000000, 0.00000000, 0.00000000, 0.00000000
1, 0.6275, 229, -0.01548269, -0.13449737, -0.95397592, -0.19119768, -9.37820625, -25.13127136, -52.20695496, 34.08359909, -73.16574097, 4.30455446, -1.54262435, -107.02737427, 0.59456420, -0.01151421, 0.03819082, 0.80305815, -0.01143792, 0.05946662, -0.04284192, 0.00000000, 0.00000000, 0.00000000, 0.00000000
1, 0.6300, 230, -0.01325508, -0.13335998, -0.95833552, -0.39926115, -9.23334122, -25.90066147, -52.26541901, 35.36977386, -72.99035645, 4.30535269, -1.56078231, -107.09369659, 0.59410274, -0.01136884, 0.03829708, 0.80339658, -0.01398233, 0.05831598, -0.03847265, 0.00000000, 0.00000000, 0.00000000, 0.00000000
1, 0.6325, 231, -0.01202306, -0.13727941, -0.96857345, 0.52301753, -8.59498501, -26.58391571, -52.26541901, 35.36977386, -72.99035645, 4.30851936, -1.57721841, -107.16159058, 0.59362942, -0.01124718, 0.03841104, 0.80374265, -0.01550111, 0.06218090, -0.02822274, 0.00000000, 0.00000000, 0.00000000, 0.00000000
1, 0.6350, 232, -0.00525203, -0.13670182, -0.97557801, 2.50459743, -7.81375694, -26.97423553, -52.26541901, 35.36977386, -72.99035645, 4.31668091, -1.59162676, -107.23033142, 0.59314919, -0.01116521, 0.03854953, 0.80409163, -0.02252351, 0.06146184, -0.02120054, 0.00000000, 0.00000000, 0.00000000, 0.00000000
1, 0.6375, 233, 0.00495488, -0.13569318, -0.97256839, 4.55242729, -6.61892509, -26.80364227, -52.26541901, 35.36977386, -72.99035645, 4.32996130, -1.60307574, -107.29842377, 0.59267217, -0.01113055, 0.03870851, 0.80443609, -0.03293017, 0.06022260, -0.02418709, 0.00000000, 0.00000000, 0.00000000, 0.00000000
1, 0.6400, 234, 0.01629755, -0.14502987, -0.96400142, 5.81844854, -5.08371544, -26.22256851, -52.26541901, 35.36977386, -72.99035645, 4.35827494, -1.60353386, -107.36511230, 0.59220129, -0.01125113, 0.03891620, 0.80477118, -0.04428084, 0.06906676, -0.03271652, 0.00000000, 0.00000000, 0.00000000, 0.00000000
1, 0.6425, 235, 0.02453079, -0.15568106, -0.96058029, 6.58533287, -2.92721391, -25.29596519, -52.93773651, 35.57439423, -72.87342834, 4.37652111, -1.60601521, -107.42874146, 0.59175301, -0.01130629, 0.03906343, 0.80509299, -0.05255738, 0.07940063, -0.03611214, 0.00000000, 0.00000000, 0.00000000, 0.00000000
1, 0.6450, 236, 0.03021982, -0.15631920, -0.96808678, 7.06880045, -0.63294131, -24.37224770, -52.93773651, 35.57439423, -72.87342834, 4.39589787, -1.60293317, -107.48963165, 0.59132254, -0.01140720, 0.03918974, 0.80540156, -0.05819262, 0.07970157, -0.02858132, 0.00000000, 0.00000000, 0.00000000, 0.00000000
1, 0.6475, 237, 0.03787555, -0.14215539, -0.99072188, 6.99187899, 0.82687926, -24.01755714, -52.93773651, 35.57439423, -72.87342834, 4.41504478, -1.59626019, -107.54936218, 0.59089947, -0.01153246, 0.03929595, 0.80570513, -0.06573195, 0.06520447, -0.00592381, 0.00000000, 0.00000000, 0.00000000, 0.00000000
1, 0.6500, 238, 0.04068703, -0.12344705, -1.00850236, 6.42944622, 1.17879820, -24.79039383, -52.93773651, 35.57439423, -72.87342834, 4.43283081, -1.58854163, -107.61094666, 0.59046304, -0.01165732, 0.03938753, 0.80601877, -0.06840876, 0.04618646, 0.01187694, 0.00000000, 0.00000000, 0.00000000, 0.00000000
1, 0.6525, 239, 0.03912079, -0.10839085, -1.01172554, 5.37586117, 1.39406145, -26.19791412, -52.93773651, 35.57439423, -72.87342834, 4.44806814, -1.57999599, -107.67600250, 0.59000206, -0.01177359, 0.03945743, 0.80635113, -0.06669343, 0.03086489, 0.01511658, 0.00000000, 0.00000000, 0.00000000, 0.00000000
1, 0.6550, 240, 0.03869075, -0.10306896, -1.00999725, 3.89706016, 1.39608109, -27.40241241, -52.17772675, 34.52206802, -73.75036621, 4.45968246, -1.57119679, -107.74405670, 0.58952010, -0.01187190, 0.03950097, 0.80669999, -0.06610987, 0.02534066, 0.01339984, 0.00000000, 0.00000000, 0.00000000, 0.00000000
1, 0.6575, 241, 0.03458984, -0.09863316, -1.00623310, 2.48915076, 1.04888415, -28.46810913, -52.17772675, 34.52206802, -73.75036621, 4.46784067, -1.56304359, -107.81483459, 0.58901918, -0.01194690, 0.03952391, 0.80706352, -0.06186670, 0.02076264, 0.00964284, 0.00000000, 0.00000000, 0.00000000, 0.00000000
1, 0.6600, 242, 0.02695756, -0.09677898, -1.00068414, 1.71722209, 0.70403969, -29.38634109, -52.17772675, 34.52206802, -73.75036621, 4.47412395, -1.55556130, -107.88796997, 0.58850175, -0.01200670, 0.03953743, 0.80743933, -0.05410388, 0.01879890, 0.00409889, 0.00000000, 0.00000000, 0.00000000, 0.00000000
1, 0.6625, 243, 0.01599126, -0.09534273, -0.99053717, 1.44181871, 0.22383139, -30.43856239, -52.17772675, 34.52206802, -73.75036621, 4.47978306, -1.54906368, -107.96382141, 0.58796531, -0.01205541, 0.03955197, 0.80782872, -0.04302422, 0.01726398, -0.00604344, 0.00000000, 0.00000000, 0.00000000, 0.00000000
1, 0.6650, 244, 0.01062109, -0.09315124, -0.97961086, 1.44869900, 0.16389309, -31.55508423, -52.17772675, 34.52206802, -73.75036621, 4.48552656, -1.54248953, -108.04245758, 0.58740884, -0.01210411, 0.03956709, 0.80823201, -0.03753936, 0.01497236, -0.01696492, 0.00000000, 0.00000000, 0.00000000, 0.00000000
1, 0.6675, 245, 0.01283631, -0.09272826, -0.96948481, 1.31119895, 0.37883383, -32.32327271, -53.14235687, 35.51593018, -72.78573608, 4.49096680, -1.53522170, -108.12298584, 0.58683866, -0.01215549, 0.03957681, 0.80864483, -0.03962777, 0.01445448, -0.02708710, 0.00000000, 0.00000000, 0.00000000, 0.00000000
1, 0.6700, 246, 0.01839017, -0.09359366, -0.96286941, 0.81643456, 0.93653399, -32.67568207, -53.14235687, 35.51593018, -72.78573608, 4.49517822, -1.52648795, -108.20426178, 0.58626264, -0.01221067, 0.03957054, 0.80906194, -0.04502925, 0.01524630, -0.03370070, 0.00000000, 0.00000000, 0.00000000, 0.00000000
1, 0.6725, 247, 0.01979237, -0.09057926, -0.95931160, 0.17684214, 1.62853730, -32.54088211, -53.14235687, 35.51593018, -72.78573608, 4.49776554, -1.51605189, -108.28506470, 0.58568949, -0.01226977, 0.03954415, 0.80947727, -0.04624937, 0.01218653, -0.03725976, 0.00000000, 0.00000000, 0.00000000, 0.00000000
1, 0.6750, 248, 0.01571865, -0.08429028, -0.96004289, -0.60429484, 2.17978072, -32.33872604, -53.14235687, 35.51593018, -72.78573608, 4.49836779, -1.50427806, -108.36527252, 0.58512032, -0.01232844, 0.03949697, 0.80989039, -0.04197025, 0.00588664, -0.03653307, 0.00000000, 0.00000000, 0.00000000, 0.00000000
1, 0.6775, 249, 0.01127943, -0.07751464, -0.96126163, -1.31428659, 2.59206223, -32.13633347, -53.14235687, 35.51593018, -72.78573608, 4.49716330, -1.49151742, -108.44487762, 0.58455491, -0.01238515, 0.03943200, 0.81030077, -0.03730838, -0.00086851, -0.03532184, 0.00000000, 0.00000000, 0.00000000, 0.00000000
1, 0.6800, 250, 0.00317044, -0.07174637, -0.96044517, -1.88059926, 2.37863374, -32.00483322, -53.08389282, 35.28208160, -73.16574097, 4.49451876, -1.47931755, -108.52420044, 0.58399159, -0.01243074, 0.03935976, 0.81070971, -0.02898653, -0.00659120, -0.03614736, 0.00000000, 0.00000000, 0.00000000, 0.00000000
1, 0.6825, 251, -0.00605318, -0.06685278, -0.95708525, -2.16188288, 1.74993503, -32.01126099, -53.08389282, 35.28208160, -73.16574097, 4.49115801, -1.46868706, -108.60367584, 0.58342731, -0.01246163, 0.03929054, 0.81111878, -0.01957744, -0.01142671, -0.03951669, 0.00000000, 0.00000000, 0.00000000, 0.00000000
1, 0.6850, 252, -0.01482682, -0.06552766, -0.94655597, -2.30248713, 1.12081230, -31.87640190, -53.08389282, 35.28208160, -73.16574097, 4.48742628, -1.45965636, -108.68292236, 0.58286470, -0.01247948, 0.03922685, 0.81152594, -0.01064622, -0.01268725, -0.05005504, 0.00000000, 0.00000000, 0.00000000, 0.00000000
1, 0.6875, 253, -0.01906930, -0.07026799, -0.93236852, -2.37764692, 1.04403961, -31.11021614, -53.08389282, 35.28208160, -73.16574097, 4.48344707, -1.45097196, -108.76027679, 0.58231533, -0.01249435, 0.03916300, 0.81192309, -0.00625223, -0.00787800, -0.06425180, 0.00000000, 0.00000000, 0.00000000, 0.00000000
1, 0.6900, 254, -0.02655914, -0.07731303, -0.92077589, -2.17431474, 1.24209082, -29.71135712, -53.08389282, 35.28208160, -73.16574097, 4.48081493, -1.44267368, -108.83407593, 0.58179080, -0.01251463, 0.03911031, 0.81230116, 0.00138241, -0.00078747, -0.07585168, 0.00000000, 0.00000000, 0.00000000, 0.00000000
1, 0.6925, 255, -0.03293546, -0.08336210, -0.91172618, -2.11410880, 1.71684766, -28.17344284, -51.68079376, 35.10669327, -73.98421478, 4.47728395, -1.43289459, -108.90397644, 0.58129346, -0.01254226, 0.03904335, 0.81265992, 0.00792935, 0.00532269, -0.08491045, 0.00000000, 0.00000000, 0.00000000, 0.00000000
1, 0.6950, 256, -0.04210367, -0.09100537, -0.90258533, -1.98617506, 2.67731977, -26.35334396, -51.68079376, 35.10669327, -73.98421478, 4.47394180, -1.42108023, -108.96916199, 0.58082896, -0.01258698, 0.03896697, 0.81299502, 0.01730369, 0.01302370, -0.09406102, 0.00000000, 0.00000000, 0.00000000, 0.00000000
1, 0.6975, 257, -0.04531781, -0.09264556, -0.89665341, -1.78623056, 3.64001489, -24.74165344, -51.68079376, 35.10669327, -73.98421478, 4.47098112, -1.40718460, -109.03013611, 0.58039367, -0.01264994, 0.03888236, 0.81330895, 0.02076029, 0.01471493, -0.10000291, 0.00000000, 0.00000000, 0.00000000, 0.00000000
1, 0.7000, 258, -0.05071220, -0.08842461, -0.89764935, -1.44251764, 4.39690113, -23.40820885, -51.68079376, 35.10669327, -73.98421478, 4.46877909, -1.39166534, -109.08762360, 0.57998240, -0.01272955, 0.03879463, 0.81360519, 0.02642545, 0.01053176, -0.09901655, 0.00000000, 0.00000000, 0.00000000, 0.00000000
1, 0.7025, 259, -0.05467638, -0.08644731, -0.90570736, -1.16389072, 4.32211161, -22.63761520, -51.68079376, 35.10669327, -73.98421478, 4.46721220, -1.37648416, -109.14322662, 0.57958448, -0.01281070, 0.03871299, 0.81389129, 0.03065452, 0.00858122, -0.09096706, 0.00000000, 0.00000000, 0.00000000, 0.00000000
1, 0.7050, 260, -0.05704461, -0.08762798, -0.91194230, -0.67057407, 3.83226418, -22.07559204, -52.44080734, 33.96667480, -72.63957977, 4.46683359, -1.36263418, -109.19750977, 0.57919586, -0.01288891, 0.03864645, 0.81416982, 0.03326441, 0.00976803, -0.08473831, 0.00000000, 0.00000000, 0.00000000, 0.00000000
1, 0.7075, 261, -0.05846673, -0.08736020, -0.91645747, -0.24473132, 3.06695652, -21.93431473, -52.44080734, 33.96667480, -72.63957977, 4.46750212, -1.35071874, -109.25160217, 0.57880884, -0.01295879, 0.03859718, 0.81444633, 0.03489444, 0.00948823, -0.08022721, 0.00000000, 0.00000000, 0.00000000, 0.00000000
1, 0.7100, 262, -0.05770676, -0.08562403, -0.92094761, 0.11244340, 2.30429649, -22.14273262, -52.44080734, 33.96667480, -72.63957977, 4.46906948, -1.34066296, -109.30636597, 0.57841718, -0.01301979, 0.03856381, 0.81472504, 0.03430992, 0.00772449, -0.07573897, 0.00000000, 0.00000000, 0.00000000, 0.00000000
1, 0.7125, 263, -0.05812337, -0.08618220, -0.92777234, 0.11821913, 0.98343718, -22.49766350, -52.44080734, 33.96667480, -72.63957977, 4.47066879, -1.33382845, -109.36225891, 0.57801801, -0.01305769, 0.03854711, 0.81500846, 0.03484578, 0.00825460, -0.06891495, 0.00000000, 0.00000000, 0.00000000, 0.00000000
1, 0.7150, 264, -0.06066454, -0.08325063, -0.93252653, 0.19645363, -0.19462283, -23.19987869, -52.44080734, 33.96667480, -72.63957977, 4.47250652, -1.32979167, -109.42014313, 0.57760525, -0.01307622, 0.03854645, 0.81530088, 0.03745740, 0.00529096, -0.06415977, 0.00000000, 0.00000000, 0.00000000, 0.00000000
1, 0.7175, 265, -0.05916743, -0.08529212, -0.93410772, -0.07784517, -1.37283981, -24.11579704, -52.73311996, 33.23589706, -73.39958954, 4.47371244, -1.32851136, -109.48052979, 0.57717508, -0.01307110, 0.03855548, 0.81560510, 0.03598262, 0.00731141, -0.06257756, 0.00000000, 0.00000000, 0.00000000, 0.00000000
1, 0.7200, 266, -0.05452681, -0.08758036, -0.93262088, -0.49298713, -2.34098601, -25.24180222, -52.73311996, 33.23589706, -73.39958954, 4.47394943, -1.32942355, -109.54391479, 0.57672399, -0.01304446, 0.03856898, 0.81592387, 0.03132609, 0.00959556, -0.06406368, 0.00000000, 0.00000000, 0.00000000, 0.00000000
1, 0.7225, 267, -0.05362788, -0.09288607, -0.91985601, -1.05141985, -2.82278132, -26.29755020, -52.73311996, 33.23589706, -73.39958954, 4.47285700, -1.33133137, -109.61003113, 0.57625371, -0.01300311, 0.03857829, 0.81625634, 0.03039387, 0.01492034, -0.07682927, 0.00000000, 0.00000000, 0.00000000, 0.00000000
1, 0.7250, 268, -0.05316122, -0.10572384, -0.90591544, -1.40363967, -2.33274913, -26.78804588, -52.73311996, 33.23589706, -73.39958954, 4.47091007, -1.33192420, -109.67726135, 0.57577503, -0.01296647, 0.03857502, 0.81659478, 0.02991686, 0.02779200, -0.09077221, 0.00000000, 0.00000000, 0.00000000, 0.00000000
1, 0.7275, 269, -0.03282971, -0.11570176, -0.91810036, -1.54870641, -1.35925305, -26.64578056, -52.73311996, 33.23589706, -73.39958954, 4.46858692, -1.33012080, -109.74395752, 0.57529950, -0.01294522, 0.03855696, 0.81693101, 0.00961681, 0.03781027, -0.07859123, 0.00000000, 0.00000000, 0.00000000, 0.00000000
1, 0.7300, 270, -0.01737148, -0.09358308, -0.96023524, -1.54682589, -2.33597779, -26.51076317, -52.26541901, 33.73282623, -73.39958954, 4.46626616, -1.33078110, -109.81050873, 0.57482541, -0.01290647, 0.03855122, 0.81726557, -0.00585293, 0.01573198, -0.03645927, 0.00000000, 0.00000000, 0.00000000, 0.00000000
1, 0.7325, 271, -0.01647754, -0.07361064, -0.97011030, -1.95517707, -3.78396368, -28.54593086, -52.26541901, 33.73282623, -73.39958954, 4.46304989, -1.33465755, -109.88240051, 0.57431376, -0.01283849, 0.03855577, 0.81762612, -0.00681452, -0.00418440, -0.02658702, 0.00000000, 0.00000000, 0.00000000, 0.00000000
1, 0.7350, 272, -0.00982142, -0.07605368, -0.96252000, -3.21439362, -4.74956465, -30.51967621, -52.26541901, 33.73282623, -73.39958954, 4.45681286, -1.34056222, -109.95941925, 0.57376611, -0.01273916, 0.03854939, 0.81801236, -0.01357367, -0.00163266, -0.03418327, 0.00000000, 0.00000000, 0.00000000, 0.00000000
1, 0.7375, 273, 0.00052362, -0.07539814, -0.96085048, -4.97623873, -5.79858017, -31.24419594, -52.26541901, 33.73282623, -73.39958954, 4.44622660, -1.34895217, -110.03844452, 0.57320487, -0.01259966, 0.03852447, 0.81840909, -0.02406510, -0.00210378, -0.03586376, 0.00000000, 0.00000000, 0.00000000, 0.00000000
1, 0.7400, 274, 0.00634084, -0.06891885, -0.96296215, -6.24467802, -6.91754103, -31.61404800, -52.26541901, 33.73282623, -73.39958954, 4.43170214, -1.35594630, -110.11878967, 0.57263398, -0.01245006, 0.03846442, 0.81881368, -0.03000435, -0.00833018, -0.03376877, 0.00000000, 0.00000000, 0.00000000, 0.00000000
1, 0.7425, 275, 0.00360001, -0.06629270, -0.95943975, -6.59073448, -7.88772678, -32.46012115, -51.73925781, 34.28821945, -73.13651276, 4.41718626, -1.36934710, -110.20123291, 0.57204914, -0.01225405, 0.03843640, 0.81922656, -0.02749733, -0.01070338, -0.03730518, 0.00000000, 0.00000000, 0.00000000, 0.00000000
1, 0.7450, 276, 0.00024542, -0.07075710, -0.94901824, -6.79215574, -8.92253685, -33.79308319, -51.73925781, 34.28821945, -73.13651276, 4.40227270, -1.38509130, -110.28720856, 0.57143933, -0.01203815, 0.03841731, 0.81965619, -0.02441746, -0.00597902, -0.04774010, 0.00000000, 0.00000000, 0.00000000, 0.00000000
1, 0.7475, 277, 0.02341455, -0.09348923, -0.94030273, -7.28121948, -9.05614758, -34.77658463, -51.73925781, 34.28821945, -73.13651276, 4.38621950, -1.40100396, -110.37564850, 0.57081163, -0.01181457, 0.03839086, 0.82009792, -0.04786424, 0.01703290, -0.05647039, 0.00000000, 0.00000000, 0.00000000, 0.00000000
1, 0.7500, 278, 0.03953408, -0.08699831, -0.93575633, -7.00444317, -8.01424503, -34.21012115, -51.73925781, 34.28821945, -73.13651276, 4.37084150, -1.41445172, -110.46248627, 0.57019448, -0.01161261, 0.03835652, 0.82053173, -0.06421842, 0.01080994, -0.06103159, 0.00000000, 0.00000000, 0.00000000, 0.00000000
1, 0.7525, 279, 0.03368522, -0.05433487, -0.92857444, -6.30761528, -7.46623898, -32.66394424, -51.73925781, 34.28821945, -73.13651276, 4.35712719, -1.42684948, -110.54534912, 0.56960493, -0.01142782, 0.03832819, 0.82094491, -0.05858586, -0.02161448, -0.06822622, 0.00000000, 0.00000000, 0.00000000, 0.00000000
1, 0.7550, 280, -0.00863369, -0.04133885, -0.91569895, -6.16927910, -7.67996264, -32.03528214, -52.52849960, 31.89126015, -73.13651276, 4.34373903, -1.43991911, -110.62669373, 0.56902617, -0.01124039, 0.03830514, 0.82134992, -0.01649499, -0.03437716, -0.08111377, 0.00000000, 0.00000000, 0.00000000, 0.00000000
1, 0.7575, 281, -0.01510971, -0.06031769, -0.89709711, -6.66059637, -7.60697222, -32.73876572, -52.52849960, 31.89126015, -73.13651276, 4.32918453, -1.45269346, -110.70977020, 0.56843466, -0.01104875, 0.03827219, 0.82176358, -0.01024185, -0.01514467, -0.09972915, 0.00000000, 0.00000000, 0.00000000, 0.00000000
1, 0.7600, 282, -0.01135549, -0.06886533, -0.88651735, -8.35013199, -7.25409460, -34.36286926, -52.52849960, 31.89126015, -73.13651276, 4.31052494, -1.46430671, -110.79682922, 0.56781435, -0.01084383, 0.03820416, 0.82219815, -0.01419870, -0.00627201, -0.11032847, 0.00000000, 0.00000000, 0.00000000, 0.00000000
1, 0.7625, 283, -0.01135549, -0.06886533, -0.88651735, -8.35013199, -7.25409460, -34.36286926, -52.52849960, 31.89126015, -73.13651276, 4.29188251, -1.47594762, -110.88387299, 0.56719375, -0.01063891, 0.03813609, 0.82263219, -0.01440180, -0.00594727, -0.11034757, 0.00000000, 0.00000000, 0.00000000, 0.00000000
1, 0.7650, 284, -0.01770861, -0.06747412, -0.89922452, -11.46882915, -5.04059839, -34.53092194, -52.52849960, 31.89126015, -73.13651276, 4.26545715, -1.48207343, -110.97092438, 0.56657237, -0.01043525, 0.03798460, 0.82306993, -0.00815556, -0.00687850, -0.09767199, 0.00000000, 0.00000000, 0.00000000, 0.00000000
1, 0.7675, 285, -0.01770861, -0.06747412, -0.89922452, -11.46882915, -5.04059839, -34.53092194, -52.58696365, 34.75592041, -72.23033905, 4.23904037, -1.48823929, -111.05797577, 0.56595057, -0.01023159, 0.03783309, 0.82350713, -0.00826314, -0.00641867, -0.09770355, 0.00000000, 0.00000000, 0.00000000, 0.00000000
1, 0.7700, 286, 0.01989253, -0.10253674, -0.93355882, -4.38595772, -6.80954456, -34.79985046, -52.58696365, 34.75592041, -72.23033905, 4.23037100, -1.49879241, -111.14601898, 0.56532055, -0.01008381, 0.03783059, 0.82394165, -0.04604840, 0.02879517, -0.06337547, 0.00000000, 0.00000000, 0.00000000, 0.00000000
1, 0.7725, 287, 0.01989253, -0.10253674, -0.93355882, -4.38595772, -6.80954456, -34.79985046, -52.58696365, 34.75592041, -72.23033905, 4.22171640, -1.50935864, -111.23406982, 0.56469017, -0.00993603, 0.03782806, 0.82437569, -0.04623275, 0.02894612, -0.06338179, 0.00000000, 0.00000000, 0.00000000, 0.00000000
1, 0.7750, 288, 0.00997273, -0.10791730, -0.88678861, -0.30971399, -6.33713865, -30.35137367, -52.58696365, 34.75592041, -72.23033905, 4.22297335, -1.51957178, -111.31093597, 0.56413901, -0.00984329, 0.03789397, 0.82475108, -0.03649115, 0.03430515, -0.11014569, 0.00000000, 0.00000000, 0.00000000, 0.00000000
1, 0.7775, 289, 0.00997273, -0.10791730, -0.88678861, -0.30971399, -6.33713865, -30.35137367, -52.58696365, 34.75592041, -72.23033905, 4.22424459, -1.52978349, -111.38779449, 0.56358761, -0.00975054, 0.03795987, 0.82512605, -0.03666931, 0.03428338, -0.11013937, 0.00000000, 0.00000000, 0.00000000, 0.00000000
1, 0.7800, 290, -0.02814079, -0.10257348, -0.88548553, -1.97222090, -3.38902330, -25.89302444, -51.91464615, 32.79742813, -72.90265656, 4.22105646, -1.53346670, -111.45300293, 0.56311905, -0.00968672, 0.03796053, 0.82544667, 0.00137995, 0.02899516, -0.11144486, 0.00000000, 0.00000000, 0.00000000, 0.00000000
1, 0.7825, 291, -0.04120069, -0.09398736, -0.89236546, -1.55713868, -2.70081115, -24.62878799, -51.91464615, 32.79742813, -72.90265656, 4.21882248, -1.53567004, -111.51492310, 0.56267351, -0.00963935, 0.03796045, 0.82575095, 0.01440141, 0.02044798, -0.10456669, 0.00000000, 0.00000000, 0.00000000, 0.00000000
1, 0.7850, 292, -0.05121565, -0.08416492, -0.89994508, -0.49806145, -2.62822604, -24.26641273, -51.91464615, 32.79742813, -72.90265656, 4.21921349, -1.53775990, -111.57593536, 0.56223422, -0.00960598, 0.03797864, 0.82604969, 0.02437991, 0.01061881, -0.09698570, 0.00000000, 0.00000000, 0.00000000, 0.00000000
1, 0.7875, 293, -0.05948366, -0.07308024, -0.91273993, 0.63647449, -3.03812718, -24.46351242, -51.91464615, 32.79742813, -72.90265656, 4.22245789, -1.54083335, -111.63749695, 0.56179065, -0.00957931, 0.03802224, 0.82634974, 0.03259430, -0.00052223, -0.08418524, 0.00000000, 0.00000000, 0.00000000, 0.00000000
1, 0.7900, 294, -0.06087971, -0.06607476, -0.92610896, 1.06871974, -4.14391661, -25.23075867, -51.91464615, 32.79742813, -72.90265656, 4.22636890, -1.55375707, -111.70088196, 0.56133574, -0.00948414, 0.03811896, 0.82665545, 0.03376487, -0.00759530, -0.07080507, 0.00000000, 0.00000000, 0.00000000, 0.00000000
1, 0.7925, 295, -0.05142951, -0.06414080, -0.93393731, 0.72430533, -5.25163364, -26.28675842, -52.61619186, 34.02513885, -72.46418762, 4.22998810, -1.56200480, -111.76741791, 0.56085706, -0.00942015, 0.03819089, 0.82697773, 0.02417078, -0.00959195, -0.06296815, 0.00000000, 0.00000000, 0.00000000, 0.00000000
1, 0.7950, 296, -0.04146200, -0.06840993, -0.93911445, -0.26020890, -6.08785677, -26.93084335, -52.61619186, 34.02513885, -72.46418762, 4.23120594, -1.57221651, -111.83570862, 0.56036603, -0.00932957, 0.03825514, 0.82730854, 0.01402510, -0.00534364, -0.05778456, 0.00000000, 0.00000000, 0.00000000, 0.00000000
1, 0.7975, 297, -0.03474788, -0.07840825, -0.94312960, -1.39016294, -6.72070599, -27.01762390, -52.61619186, 34.02513885, -72.46418762, 4.22961998, -1.58398998, -111.90432739, 0.55987298, -0.00921382, 0.03830671, 0.82764119, 0.00710557, 0.00468269, -0.05376583, 0.00000000, 0.00000000, 0.00000000, 0.00000000
1, 0.8000, 298, -0.02855755, -0.08465124, -0.94688618, -2.30865097, -7.21361637, -27.03135109, -52.61619186, 34.02513885, -72.46418762, 4.22575665, -1.59699357, -111.97307587, 0.55937928, -0.00907796, 0.03834770, 0.82797462, 0.00068838, 0.01099336, -0.05000795, 0.00000000, 0.00000000, 0.00000000, 0.00000000
1, 0.8025, 299, -0.02631393, -0.08569980, -0.95089149, -2.87599349, -7.35858345, -26.76000786, -52.61619186, 34.02513885, -72.46418762, 4.22047329, -1.61041367, -112.04116821, 0.55889022, -0.00893232, 0.03838025, 0.82830489, -0.00178938, 0.01213435, -0.04600287, 0.00000000, 0.00000000, 0.00000000, 0.00000000
1, 0.8050, 300, -0.02640092, -0.08445199, -0.95563447, -3.44002271, -7.63864708, -26.97764397, -52.44080734, 32.32972717, -72.84420013, 4.21381187, -1.62449932, -112.10987091, 0.55839688, -0.00877493, 0.03840596, 0.82863802, -0.00194813, 0.01100294, -0.04126143, 0.00000000, 0.00000000, 0.00000000, 0.00000000
1, 0.8075, 301, -0.02707238, -0.08233313, -0.96378696, -4.14467144, -7.63835192, -27.47480583, -52.44080734, 32.32972717, -72.84420013, 4.20544195, -1.63850200, -112.17979431, 0.55789447, -0.00860937, 0.03841882, 0.82897747, -0.00152097, 0.00903022, -0.03311276, 0.00000000, 0.00000000, 0.00000000, 0.00000000
1, 0.8100, 302, -0.02207869, -0.07962162, -0.96555930, -5.27470016, -7.64165449, -27.83773804, -52.44080734, 32.32972717, -72.84420013, 4.19428873, -1.65245807, -112.25062561, 0.55738550, -0.00843029, 0.03841120, 0.82932198, -0.00675814, 0.00651328, -0.03134775, 0.00000000, 0.00000000, 0.00000000, 0.00000000
1, 0.8125, 303, -0.01471892, -0.08528569, -0.96467662, -6.26521397, -7.22730684, -28.05745125, -52.44080734, 32.32972717, -72.84420013, 4.18069029, -1.66535640, -112.32193756, 0.55687279, -0.00824685, 0.03838056, 0.82966959, -0.01434293, 0.01241443, -0.03224123, 0.00000000, 0.00000000, 0.00000000, 0.00000000
1, 0.8150, 304, -0.00665685, -0.08779279, -0.96365035, -7.11766100, -6.32745695, -27.92432976, -52.44080734, 32.32972717, -72.84420013, 4.16496086, -1.67605329, -112.39275360, 0.55636317, -0.00806923, 0.03832357, 0.83001578, -0.02259162, 0.01519562, -0.03328204, 0.00000000, 0.00000000, 0.00000000, 0.00000000
1, 0.8175, 305, -0.00542310, -0.08435475, -0.96824980, -7.68752575, -5.56659508, -27.64879799, -52.73311996, 33.38205338, -73.10727692, 4.14779377, -1.68492317, -112.46273041, 0.55585909, -0.00789823, 0.03824705, 0.83035862, -0.02398011, 0.01205660, -0.02869976, 0.00000000, 0.00000000, 0.00000000, 0.00000000
1, 0.8200, 306, -0.00749872, -0.07972772, -0.97226089, -8.04202843, -5.00992775, -27.79015923, -52.73311996, 33.38205338, -73.10727692, 4.12975836, -1.69240141, -112.53295898, 0.55535275, -0.00773314, 0.03815733, 0.83070302, -0.02203495, 0.00774368, -0.02470750, 0.00000000, 0.00000000, 0.00000000, 0.00000000
1, 0.8225, 307, -0.00729452, -0.07462748, -0.97284204, -7.97031641, -4.44844532, -28.20527458, -52.73311996, 33.38205338, -73.10727692, 4.11193752, -1.69842696, -112.60411835, 0.55483913, -0.00757943, 0.03806201, 0.83105195, -0.02234427, 0.00295375, -0.02414566, 0.00000000, 0.00000000, 0.00000000, 0.00000000
1, 0.8250, 308, -0.00232496, -0.07120193, -0.97278446, -7.89963341, -3.81850171, -28.48054504, -52.73311996, 33.38205338, -73.10727692, 4.09431791, -1.70285428, -112.67584229, 0.55432081, -0.00743822, 0.03796029, 0.83140373, -0.02739106, -0.00016504, -0.02422291, 0.00000000, 0.00000000, 0.00000000, 0.00000000
1, 0.8275, 309, 0.00271466, -0.06488476, -0.97003287, -8.04225254, -3.12128615, -28.61861229, -52.73311996, 33.38205338, -73.10727692, 4.07635117, -1.70554030, -112.74779510, 0.55380034, -0.00730804, 0.03784751, 0.83175683, -0.03247755, -0.00616948, -0.02699549, 0.00000000, 0.00000000, 0.00000000, 0.00000000
1, 0.8300, 310, 0.00606662, -0.06222641, -0.96597415, -8.39756107, -2.42586994, -28.68956947, -52.76234818, 32.85588837, -72.61034393, 4.05750227, -1.70650327, -112.81980896, 0.55327892, -0.00718625, 0.03771985, 0.83211058, -0.03584631, -0.00849977, -0.03107697, 0.00000000, 0.00000000, 0.00000000, 0.00000000
1, 0.8325, 311, 0.01494756, -0.06414487, -0.96189433, -8.96675491, -1.45414472, -28.62235641, -52.76234818, 32.85588837, -72.61034393, 4.03721762, -1.70507920, -112.89147186, 0.55275941, -0.00707517, 0.03757013, 0.83246350, -0.04470240, -0.00622838, -0.03518254, 0.00000000, 0.00000000, 0.00000000, 0.00000000
1, 0.8350, 312, 0.02250721, -0.06739904, -0.95868427, -9.53572369, -0.41213161, -28.62458611, -52.76234818, 32.85588837, -72.61034393, 4.01550341, -1.70108199, -112.96295929, 0.55224055, -0.00697615, 0.03739749, 0.83281642, -0.05219232, -0.00259647, -0.03842121, 0.00000000, 0.00000000, 0.00000000, 0.00000000
1, 0.8375, 313, 0.02662646, -0.06422018, -0.95875663, -10.10227489, 0.21363343, -28.83803940, -52.76234818, 32.85588837, -72.61034393, 3.99237895, -1.69551551, -113.03487396, 0.55171818, -0.00688185, 0.03720697, 0.83317190, -0.05621446, -0.00537311, -0.03838003, 0.00000000, 0.00000000, 0.00000000, 0.00000000
1, 0.8400, 314, 0.03038176, -0.06006490, -0.95992267, -10.52670002, 0.77112138, -29.11980629, -52.76234818, 32.85588837, -72.61034393, 3.96716642, -1.67920470, -113.10779572, 0.55118644, -0.00685562, 0.03694962, 0.83353537, -0.05968520, -0.00909017, -0.03725278, 0.00000000, 0.00000000, 0.00000000, 0.00000000
1, 0.8425, 315, 0.03425596, -0.06006388, -0.95696926, -10.88123417, 1.18782139, -29.19204712, -53.58082199, 33.52820587, -72.90265656, 3.94208741, -1.67120934, -113.18042755, 0.55065805, -0.00676991, 0.03673309, 0.83389485, -0.06341994, -0.00865499, -0.04024041, 0.00000000, 0.00000000, 0.00000000, 0.00000000
1, 0.8450, 316, 0.03641178, -0.06398985, -0.94930106, -11.31147957, 1.87675321, -28.56626129, -53.58082199, 33.52820587, -72.90265656, 3.91587210, -1.66163504, -113.25138092, 0.55014139, -0.00669105, 0.03650052, 0.83424664, -0.06540871, -0.00427308, -0.04794484, 0.00000000, 0.00000000, 0.00000000, 0.00000000
1, 0.8475, 317, 0.03462473, -0.06711529, -0.93825126, -11.67296600, 2.98293900, -27.79813385, -53.58082199, 33.52820587, -72.90265656, 3.88867855, -1.64946556, -113.32022858, 0.54963946, -0.00662737, 0.03624820, 0.83458894, -0.06340937, -0.00067473, -0.05903305, 0.00000000, 0.00000000, 0.00000000, 0.00000000
1, 0.8500, 318, 0.03214357, -0.07021581, -0.93110323, -12.03451347, 3.80919003, -26.89176941, -53.58082199, 33.52820587, -72.90265656, 3.86049724, -1.63542163, -113.38668823, 0.54915446, -0.00657369, 0.03597951, 0.83492023, -0.06068319, 0.00291584, -0.06622125, 0.00000000, 0.00000000, 0.00000000, 0.00000000
1, 0.8525, 319, 0.02959756, -0.07388332, -0.92931610, -12.25165272, 4.50052929, -26.40285873, -53.58082199, 33.52820587, -72.90265656, 3.83171773, -1.61976779, -113.45182800, 0.54867864, -0.00652960, 0.03569863, 0.83524537, -0.05786408, 0.00708379, -0.06804986, 0.00000000, 0.00000000, 0.00000000, 0.00000000
1, 0.8550, 320, 0.02463913, -0.07974292, -0.92829019, -11.82691288, 4.43323040, -26.39788628, -52.58696365, 33.32358932, -73.34112549, 3.80398345, -1.60431528, -113.51696014, 0.54820263, -0.00648937, 0.03542629, 0.83556974, -0.05263606, 0.01342567, -0.06911565, 0.00000000, 0.00000000, 0.00000000, 0.00000000
1, 0.8575, 321, 0.01953889, -0.08708432, -0.92386365, -10.97412395, 4.16353559, -26.87692070, -52.58696365, 33.32358932, -73.34112549, 3.77839780, -1.58948648, -113.58334351, 0.54771733, -0.00645479, 0.03517263, 0.83589888, -0.04727710, 0.02121200, -0.07357883, 0.00000000, 0.00000000, 0.00000000, 0.00000000
1, 0.8600, 322, 0.01340799, -0.08946673, -0.91832423, -10.05063534, 3.61430383, -27.21683693, -52.58696365, 33.32358932, -73.34112549, 3.75513077, -1.57600057, -113.65067291, 0.54722512, -0.00642149, 0.03494231, 0.83623111, -0.04091091, 0.02399904, -0.07915139, 0.00000000, 0.00000000, 0.00000000, 0.00000000
1, 0.8625, 323, 0.00616733, -0.09088800, -0.91242361, -9.41031361, 3.41309810, -27.69819832, -52.58696365, 33.32358932, -73.34112549, 3.73348308, -1.56296408, -113.71923065, 0.54672366, -0.00639253, 0.03472600, 0.83656836, -0.03344282, 0.02579679, -0.08508290, 0.00000000, 0.00000000, 0.00000000, 0.00000000
1, 0.8650, 324, -0.00080990, -0.09290333, -0.90798503, -8.98200703, 3.42095733, -28.32076645, -52.58696365, 33.32358932, -73.34112549, 3.71293306, -1.54983211, -113.78936005, 0.54621047, -0.00636928, 0.03451731, 0.83691233, -0.02623647, 0.02816949, -0.08955093, 0.00000000, 0.00000000, 0.00000000, 0.00000000
1, 0.8675, 325, -0.00502758, -0.10082790, -0.90598959, -8.76680946, 3.42640901, -28.80645752, -52.76234818, 33.44051361, -72.46418762, 3.69293761, -1.53663278, -113.86070251, 0.54568815, -0.00634906, 0.03431240, 0.83726156, -0.02178850, 0.03644179, -0.09157510, 0.00000000, 0.00000000, 0.00000000, 0.00000000
1, 0.8700, 326, -0.00913155, -0.10558264, -0.90604699, -8.41418648, 3.84646654, -28.80011177, -52.76234818, 33.44051361, -72.46418762, 3.67380381, -1.52241135, -113.93196106, 0.54516602, -0.00634071, 0.03410891, 0.83761001, -0.01743641, 0.04152924, -0.09154584, 0.00000000, 0.00000000, 0.00000000, 0.00000000
1, 0.8725, 327, -0.00181865, -0.11131117, -0.91283590, -7.64178181, 4.47185421, -28.08987808, -52.76234818, 33.44051361, -72.46418762, 3.65653324, -1.50676537, -114.00135040, 0.54465699, -0.00635244, 0.03391219, 0.83794898, -0.02447633, 0.04755802, -0.08478339, 0.00000000, 0.00000000, 0.00000000, 0.00000000
1, 0.8750, 328, -0.00520295, -0.11484961, -0.91275948, -6.37532711, 5.09819174, -27.16418076, -52.76234818, 33.44051361, -72.46418762, 3.64234638, -1.48972321, -114.06832886, 0.54416496, -0.00638998, 0.03373129, 0.83827561, -0.02079469, 0.05134299, -0.08488329, 0.00000000, 0.00000000, 0.00000000, 0.00000000
1, 0.9075, 329, -0.05460862, -0.06282250, -0.93432146, 2.50852251, 3.73565364, -32.92066956, -52.47003555, 31.24817276, -72.49342346, 3.69422865, -1.25854540, -115.03670502, 0.53701693, -0.00804908, 0.03308358, 0.84288412, 0.03264464, -0.00159372, -0.06335993, 0.00000000, 0.00000000, 0.00000000, 0.00000000
1, 0.9100, 330, -0.05279485, -0.05830478, -0.93684077, 2.22652292, 3.66560555, -33.06404877, -52.47003555, 31.24817276, -72.49342346, 3.70158434, -1.24406910, -115.11862946, 0.53641099, -0.00816644, 0.03307576, 0.84326905, 0.03108347, -0.00623989, -0.06083788, 0.00000000, 0.00000000, 0.00000000, 0.00000000
1, 0.9125, 331, -0.05107874, -0.05425741, -0.94143313, 2.15634751, 3.45617127, -33.06589890, -52.47003555, 31.24817276, -72.49342346, 3.70874405, -1.23010457, -115.20057678, 0.53580463, -0.00827912, 0.03306908, 0.84365356, 0.02961102, -0.01041226, -0.05624270, 0.00000000, 0.00000000, 0.00000000, 0.00000000
1, 0.9150, 332, -0.05143666, -0.05144428, -0.94483083, 2.29635477, 3.24488330, -32.71628189, -52.47003555, 31.24817276, -72.49342346, 3.71621704, -1.21671355, -115.28169250, 0.53520423, -0.00838929, 0.03306750, 0.84403360, 0.03020261, -0.01335584, -0.05284150, 0.00000000, 0.00000000, 0.00000000, 0.00000000
1, 0.9175, 333, -0.05255602, -0.04597161, -0.94761240, 2.57720566, 2.82352519, -32.15658569, -52.35311127, 32.09587860, -73.22420502, 3.72434497, -1.20445311, -115.36148071, 0.53461349, -0.00849457, 0.03307609, 0.84440643, 0.03153590, -0.01897034, -0.05005527, 0.00000000, 0.00000000, 0.00000000, 0.00000000
1, 0.9200, 334, -0.04853542, -0.04143185, -0.95133132, 3.07010436, 2.33306885, -31.52480125, -52.35311127, 32.09587860, -73.22420502, 3.73365879, -1.19350708, -115.43977356, 0.53403378, -0.00859610, 0.03309959, 0.84477133, 0.02770632, -0.02367253, -0.04632962, 0.00000000, 0.00000000, 0.00000000, 0.00000000
1, 0.9225, 335, -0.05124095, -0.03548060, -0.95448852, 3.49308181, 1.84343338, -31.03342056, -52.35311127, 32.09587860, -73.22420502, 3.74399114, -1.18384910, -115.51689911, 0.53346229, -0.00869318, 0.03313666, 0.84512973, 0.03058036, -0.02980392, -0.04316419, 0.00000000, 0.00000000, 0.00000000, 0.00000000
1, 0.9250, 336, -0.05307990, -0.03110202, -0.95752496, 3.70626402, 1.21629381, -30.89414787, -52.35311127, 32.09587860, -73.22420502, 3.75483966, -1.17576420, -115.59379578, 0.53289270, -0.00878107, 0.03318497, 0.84548622, 0.03256039, -0.03437159, -0.04011846, 0.00000000, 0.00000000, 0.00000000, 0.00000000
1, 0.9275, 337, -0.05408227, -0.02758665, -0.95800209, 3.56694365, 0.72896433, -31.03769112, -52.35311127, 32.09587860, -73.22420502, 3.76533985, -1.16885746, -115.67111206, 0.53231996, -0.00885846, 0.03323634, 0.84584415, 0.03368328, -0.03806994, -0.03963161, 0.00000000, 0.00000000, 0.00000000, 0.00000000
1, 0.9300, 338, -0.04896127, -0.02877859, -0.95674938, 3.07405925, 0.30993944, -31.25509071, -52.58696365, 31.97895241, -72.72727203, 3.77461004, -1.16294658, -115.74905396, 0.53174269, -0.00892254, 0.03328342, 0.84620464, 0.02866542, -0.03703957, -0.04087585, 0.00000000, 0.00000000, 0.00000000, 0.00000000
1, 0.9325, 339, -0.04681975, -0.03640776, -0.95677108, 2.01534009, -0.04197089, -31.54898834, -52.58696365, 31.97895241, -72.72727203, 3.78124261, -1.15785408, -115.82778168, 0.53115964, -0.00896805, 0.03331496, 0.84656900, 0.02661277, -0.02952600, -0.04084831, 0.00000000, 0.00000000, 0.00000000, 0.00000000
1, 0.9350, 340, -0.04943907, -0.04419075, -0.95622319, 0.81446451, -0.46557117, -31.70545197, -52.58696365, 31.97895241, -72.72727203, 3.78487635, -1.15378582, -115.90696716, 0.53057343, -0.00899193, 0.03332919, 0.84693575, 0.02930308, -0.02180637, -0.04139346, 0.00000000, 0.00000000, 0.00000000, 0.00000000
1, 0.9375, 341, -0.04926476, -0.05123316, -0.95516193, -0.24634410, -0.82052565, -31.65053558, -52.58696365, 31.97895241, -72.72727203, 3.78585148, -1.15060878, -115.98607635, 0.52998793, -0.00899693, 0.03332792, 0.84730226, 0.02918420, -0.01478101, -0.04245472, 0.00000000, 0.00000000, 0.00000000, 0.00000000
1, 0.9400, 342, -0.04750897, -0.05875780, -0.95323807, -0.95784307, -0.62032545, -31.10029411, -52.58696365, 31.97895241, -72.72727203, 3.78416181, -1.15266252, -116.06356049, 0.52941543, -0.00895138, 0.03333098, 0.84766054, 0.02739258, -0.00722690, -0.04437977, 0.00000000, 0.00000000, 0.00000000, 0.00000000
1, 0.9425, 343, -0.04555432, -0.06204129, -0.95056039, -1.38923752, -0.42280018, -30.05818748, -51.47617722, 31.45279121, -72.93189240, 3.78219628, -1.14875972, -116.13862610, 0.52885944, -0.00894937, 0.03330429, 0.84800857, 0.02550604, -0.00390927, -0.04706104, 0.00000000, 0.00000000, 0.00000000, 0.00000000
1, 0.9450, 344, -0.05018389, -0.06230930, -0.95084256, -1.60668850, -0.22164963, -29.29248238, -51.47617722, 31.45279121, -72.93189240, 3.77964282, -1.14448333, -116.21174622, 0.52831751, -0.00894802, 0.03327140, 0.84834760, 0.03021023, -0.00359691, -0.04678340, 0.00000000, 0.00000000, 0.00000000, 0.00000000
1, 0.9475, 345, -0.05532262, -0.05807776, -0.95305401, -1.67931163, -0.15480243, -29.01399422, -51.47617722, 31.45279121, -72.93189240, 3.77688813, -1.14008999, -116.28416443, 0.52778059, -0.00894685, 0.03323643, 0.84868300, 0.03542562, -0.00778057, -0.04457653, 0.00000000, 0.00000000, 0.00000000, 0.00000000
1, 0.9500, 346, -0.05533692, -0.05515764, -0.95425677, -1.39525199, -0.22167723, -29.15031242, -51.47617722, 31.45279121, -72.93189240, 3.77484488, -1.13584363, -116.35693359, 0.52724087, -0.00894782, 0.03320745, 0.84901953, 0.03551402, -0.01066522, -0.04337758, 0.00000000, 0.00000000, 0.00000000, 0.00000000
1, 0.9525, 347, -0.05727645, -0.05686993, -0.95391595, -1.32165909, -0.63692003, -29.43041039, -51.47617722, 31.45279121, -72.93189240, 3.77299619, -1.13258946, -116.43048096, 0.52669543, -0.00894214, 0.03318454, 0.84935910, 0.03751034, -0.00892081, -0.04372168, 0.00000000, 0.00000000, 0.00000000, 0.00000000
1, 0.9550, 348, -0.05624889, -0.06107051, -0.94284892, -1.24993169, -0.98491889, -29.43113708, -52.29465103, 30.63431740, -72.55188751, 3.77132487, -1.13020599, -116.50408173, 0.52614945, -0.00893083, 0.03316695, 0.84969819, 0.03652436, -0.00469119, -0.05479151, 0.00000000, 0.00000000, 0.00000000, 0.00000000
1, 0.9575, 349, -0.05319899, -0.07070038, -0.93410689, -1.46242762, -1.05639672, -29.36434174, -52.29465103, 30.63431740, -72.55188751, 3.76911569, -1.12801385, -116.57751465, 0.52560449, -0.00891571, 0.03314624, 0.85003632, 0.03351271, 0.00497709, -0.06353682, 0.00000000, 0.00000000, 0.00000000, 0.00000000
1, 0.9600, 350, -0.05406769, -0.07523611, -0.92841429, -1.53385663, -1.26765716, -29.15690804, -52.29465103, 30.63431740, -72.55188751, 3.76671624, -1.12638617, -116.65047455, 0.52506310, -0.00889569, 0.03312666, 0.85037190, 0.03440982, 0.00955458, -0.06923260, 0.00000000, 0.00000000, 0.00000000, 0.00000000
1, 0.9625, 351, -0.05786185, -0.07636823, -0.92601544, -1.39075983, -1.68432963, -29.22683525, -52.29465103, 30.63431740, -72.55188751, 3.76467824, -1.12578964, -116.72367096, 0.52451986, -0.00886963, 0.03311447, 0.85070783, 0.03821439, 0.01072216, -0.07163413, 0.00000000, 0.00000000, 0.00000000, 0.00000000
1, 0.9650, 352, -0.06020382, -0.07835540, -0.92166114, -1.03004813, -2.51179862, -29.99367714, -52.29465103, 30.63431740, -72.55188751, 3.76358271, -1.12713289, -116.79891205, 0.52396142, -0.00883289, 0.03311828, 0.85105199, 0.04053292, 0.01272845, -0.07598913, 0.00000000, 0.00000000, 0.00000000, 0.00000000
1, 0.9675, 353, -0.05985882, -0.08117858, -0.91692412, -0.45558667, -3.26596308, -31.03659248, -52.00233841, 31.74510384, -72.61034393, 3.76397943, -1.13018668, -116.87689972, 0.52338278, -0.00878947, 0.03314117, 0.85140765, 0.04013464, 0.01554479, -0.08072473, 0.00000000, 0.00000000, 0.00000000, 0.00000000
1, 0.9700, 354, -0.04717424, -0.09148411, -0.90749907, 0.33034110, -3.88018823, -32.00645828, -52.00233841, 31.74510384, -72.61034393, 3.76639605, -1.13461185, -116.95738220, 0.52278525, -0.00874430, 0.03318546, 0.85177332, 0.02737283, 0.02580833, -0.09014553, 0.00000000, 0.00000000, 0.00000000, 0.00000000
1, 0.9725, 355, -0.04704492, -0.11849759, -0.89606893, 0.89887768, -4.01332903, -32.34885788, -52.00233841, 31.74510384, -72.61034393, 3.77025795, -1.13930833, -117.03875732, 0.52218091, -0.00870340, 0.03324176, 0.85214221, 0.02716155, 0.05275467, -0.10156953, 0.00000000, 0.00000000, 0.00000000, 0.00000000
1, 0.9750, 356, -0.04995404, -0.12485210, -0.89210671, 1.67353749, -3.59454393, -31.91863823, -52.00233841, 31.74510384, -72.61034393, 3.77603936, -1.14302409, -117.11900330, 0.52158445, -0.00867878, 0.03330776, 0.85250515, 0.03000584, 0.05900861, -0.10552391, 0.00000000, 0.00000000, 0.00000000, 0.00000000
1, 0.9775, 357, -0.04995404, -0.12485210, -0.89210671, 1.67353749, -3.59454393, -31.91863823, -52.00233841, 31.74510384, -72.61034393, 3.78182721, -1.14673209, -117.19922638, 0.52098769, -0.00865416, 0.03337374, 0.85286754, 0.02994114, 0.05890792, -0.10551584, 0.00000000, 0.00000000, 0.00000000, 0.00000000
1, 0.9800, 358, -0.05988354, -0.11374182, -0.90966338, 6.68379068, -2.32676816, -30.17588043, -52.38234329, 31.01432228, -73.04881287, 3.80005097, -1.14754844, -117.27490997, 0.52042317, -0.00870881, 0.03351884, 0.85320592, 0.03985639, 0.04748035, -0.08793789, 0.00000000, 0.00000000, 0.00000000, 0.00000000
1, 0.9825, 359, -0.05988354, -0.11374182, -0.90966338, 6.68379068, -2.32676816, -30.17588043, -52.38234329, 31.01432228, -73.04881287, 3.81827688, -1.14834094, -117.35058594, 0.51985836, -0.00876345, 0.03366393, 0.85354394, 0.03984256, 0.04716303, -0.08791655, 0.00000000, 0.00000000, 0.00000000, 0.00000000
1, 0.9850, 360, -0.07029528, -0.08843441, -0.92824727, 11.57575130, -3.82442355, -31.02898026, -52.38234329, 31.01432228, -73.04881287, 3.84878349, -1.15269423, -117.42864227, 0.51927543, -0.00884630, 0.03391692, 0.85388792, 0.05017835, 0.02132458, -0.06929548, 0.00000000, 0.00000000, 0.00000000, 0.00000000
1, 0.9875, 361, -0.07029528, -0.08843441, -0.92824727, 11.57575130, -3.82442355, -31.02898026, -52.38234329, 31.01432228, -73.04881287, 3.87929559, -1.15700614, -117.50668335, 0.51869220, -0.00892915, 0.03416989, 0.85423130, 0.05010309, 0.02079345, -0.06925815, 0.00000000, 0.00000000, 0.00000000, 0.00000000
1, 0.9900, 362, -0.06878834, -0.06723450, -0.93957216, 14.35194492, -6.02346468, -32.74892807, -52.38234329, 31.01432228, -73.04881287, 3.91721606, -1.17266464, -117.58916473, 0.51807749, -0.00895917, 0.03452982, 0.85458946, 0.04832292, -0.00106624, -0.05788273, 0.00000000, 0.00000000, 0.00000000, 0.00000000
1, 0.9925, 363, -0.06878834, -0.06723450, -0.93957216, 14.35194492, -6.02346468, -32.74892807, -52.79158020, 31.51125336, -72.17187500, 3.95479584, -1.18206811, -117.67190552, 0.51745945, -0.00903375, 0.03485908, 0.85494977, 0.04815885, -0.00172021, -0.05783434, 0.00000000, 0.00000000, 0.00000000, 0.00000000
1, 0.9950, 364, -0.07041567, -0.06043691, -0.94149870, 14.36788464, -7.67932701, -34.64024353, -52.79158020, 31.51125336, -72.17187500, 3.99253583, -1.19521868, -117.75964355, 0.51680446, -0.00907906, 0.03520692, 0.85533112, 0.04955670, -0.00917443, -0.05585738, 0.00000000, 0.00000000, 0.00000000, 0.00000000
1, 0.9975, 365, -0.07476051, -0.05123929, -0.94209552, 13.80649662, -8.30534935, -35.13853836, -52.79158020, 31.51125336, -72.17187500, 4.02892208, -1.20978677, -117.84875488, 0.51613939, -0.00910673, 0.03555122, 0.85571796, 0.05364733, -0.01900504, -0.05521077, 0.00000000, 0.00000000, 0.00000000, 0.00000000
1, 1.0000, 366, -0.07933572, -0.03958986, -0.94633442, 13.17457581, -8.86148167, -35.70715714, -52.79158020, 31.51125336, -72.17187500, 4.06378365, -1.22558630, -117.93937683, 0.51546311, -0.00911734, 0.03588985, 0.85611129, 0.05794684, -0.03126086, -0.05092317, 0.00000000, 0.00000000, 0.00000000, 0.00000000
1, 1.0025, 367, -0.07902615, -0.02986065, -0.94944799, 12.39927292, -9.35116482, -35.99816895, -52.79158020, 31.51125336, -72.17187500, 4.09675217, -1.24250150, -118.03083038, 0.51478082, -0.00911030, 0.03621943, 0.85650796, 0.05734211, -0.04156343, -0.04776227, 0.00000000, 0.00000000, 0.00000000, 0.00000000
1, 1.0050, 368, -0.07564395, -0.02278192, -0.95255029, 11.54864788, -9.70797253, -35.59180069, -52.64542389, 29.81584358, -72.40573120, 4.12760019, -1.26032805, -118.12134552, 0.51410556, -0.00908672, 0.03653717, 0.85690022, 0.05364886, -0.04917856, -0.04461467, 0.00000000, 0.00000000, 0.00000000, 0.00000000
1, 1.0075, 369, -0.07822075, -0.01719108, -0.95607358, 10.62295151, -9.72165298, -34.62659454, -52.64542389, 29.81584358, -72.40573120, 4.15610933, -1.27831650, -118.20945740, 0.51344824, -0.00905173, 0.03683792, 0.85728174, 0.05591178, -0.05526505, -0.04104853, 0.00000000, 0.00000000, 0.00000000, 0.00000000
1, 1.0100, 370, -0.07952563, -0.01375074, -0.96300679, 9.97741890, -9.45807266, -33.30776596, -52.64542389, 29.81584358, -72.40573120, 4.18295765, -1.29584467, -118.29424286, 0.51281554, -0.00901336, 0.03712388, 0.85764837, 0.05691082, -0.05917211, -0.03407437, 0.00000000, 0.00000000, 0.00000000, 0.00000000
1, 1.0125, 371, -0.07720845, -0.00872946, -0.96758938, 9.40322685, -9.40313530, -31.98901939, -52.64542389, 29.81584358, -72.40573120, 4.20832014, -1.31343806, -118.37574005, 0.51220739, -0.00896853, 0.03739872, 0.85800034, 0.05428665, -0.06463426, -0.02945250, 0.00000000, 0.00000000, 0.00000000, 0.00000000
1, 1.0150, 372, -0.07454997, -0.00519075, -0.96828043, 8.75779915, -9.62913418, -30.46315384, -52.64542389, 29.81584358, -72.40573120, 4.23200989, -1.33184123, -118.45349884, 0.51162744, -0.00891100, 0.03766429, 0.85833532, 0.05130707, -0.06858467, -0.02872360, 0.00000000, 0.00000000, 0.00000000, 0.00000000
1, 1.0175, 373, -0.07616604, -0.00388049, -0.96633857, 7.75780678, -9.57840347, -28.94041061, -53.11312485, 30.63431740, -71.90879822, 4.25313425, -1.35036874, -118.52744293, 0.51107603, -0.00884201, 0.03791084, 0.85865366, 0.05259986, -0.07026196, -0.03063072, 0.00000000, 0.00000000, 0.00000000, 0.00000000
1, 1.0200, 374, -0.08441588, 0.00175025, -0.96345407, 6.75784636, -9.38770390, -27.48678780, -53.11312485, 30.63431740, -71.90879822, 4.27169704, -1.36866617, -118.59772491, 0.51055193, -0.00876423, 0.03813680, 0.85895610, 0.06053045, -0.07621511, -0.03348345, 0.00000000, 0.00000000, 0.00000000, 0.00000000
1, 1.0225, 375, -0.09209716, 0.00723039, -0.95618230, 5.54764271, -9.47508526, -26.24638748, -53.11312485, 30.63431740, -71.90879822, 4.28718328, -1.38739157, -118.66494751, 0.51005101, -0.00867030, 0.03834127, 0.85924548, 0.06788499, -0.08196411, -0.04072726, 0.00000000, 0.00000000, 0.00000000, 0.00000000
1, 1.0250, 376, -0.09148024, 0.01239724, -0.94908887, 4.26484632, -9.35565090, -24.79662132, -53.11312485, 30.63431740, -71.90879822, 4.29939508, -1.40607440, -118.72853851, 0.50957745, -0.00856312, 0.03852063, 0.85951948, 0.06694210, -0.08734286, -0.04779680, 0.00000000, 0.00000000, 0.00000000, 0.00000000
1, 1.0275, 377, -0.08884399, 0.01445305, -0.94613487, 2.62723255, -9.16974163, -23.21141624, -53.11312485, 30.63431740, -71.90879822, 4.30743551, -1.42458022, -118.78814697, 0.50913393, -0.00843988, 0.03866750, 0.85977685, 0.06398294, -0.08953794, -0.05073231, 0.00000000, 0.00000000, 0.00000000, 0.00000000
1, 1.0300, 378, -0.09037124, 0.02343279, -0.94780588, 0.63931006, -9.33055592, -22.05080986, -52.87927628, 29.11429405, -71.76264191, 4.31045389, -1.44369888, -118.84487915, 0.50871229, -0.00829056, 0.03877907, 0.86002284, 0.06517661, -0.09856959, -0.04904902, 0.00000000, 0.00000000, 0.00000000, 0.00000000
1, 1.0325, 379, -0.09021671, 0.02785572, -0.95520943, -1.41219139, -10.11096382, -21.80089951, -52.87927628, 29.11429405, -71.76264191, 4.30835152, -1.46480942, -118.90114594, 0.50829482, -0.00810362, 0.03886084, 0.86026770, 0.06465375, -0.10295523, -0.04163891, 0.00000000, 0.00000000, 0.00000000, 0.00000000
1, 1.0350, 380, -0.08491404, 0.02805443, -0.96137547, -3.59596944, -11.64828587, -22.74225426, -52.87927628, 29.11429405, -71.76264191, 4.30088043, -1.48958051, -118.96005249, 0.50785869, -0.00786441, 0.03891849, 0.86052489, 0.05891890, -0.10302311, -0.03547156, 0.00000000, 0.00000000, 0.00000000, 0.00000000
1, 1.0375, 381, -0.07910194, 0.02094473, -0.96306962, -5.63617325, -13.32173729, -23.96153831, -52.87927628, 29.11429405, -71.76264191, 4.28842354, -1.51830542, -119.02230072, 0.50739837, -0.00757221, 0.03895616, 0.86079729, 0.05260563, -0.09569570, -0.03378052, 0.00000000, 0.00000000, 0.00000000, 0.00000000
1, 1.0400, 382, -0.06920233, 0.01051603, -0.95561582, -7.32200766, -15.20224380, -25.17737961, -52.87927628, 29.11429405, -71.09032440, 4.26043081, -1.55758607, -119.08779144, 0.50691688, -0.00713077, 0.03892361, 0.86108625, 0.04202069, -0.08477861, -0.04125244, 0.00000000, 0.00000000, 0.00000000, 0.00000000
1, 1.0425, 383, -0.06097261, -0.01137435, -0.94153720, -8.94062233, -17.01754379, -25.83391190, -53.34697342, 29.61122513, -71.09032440, 4.23993874, -1.59522676, -119.15538025, 0.50641835, -0.00673414, 0.03893982, 0.86138189, 0.03313426, -0.06253035, -0.05533957, 0.00000000, 0.00000000, 0.00000000, 0.00000000
1, 1.0450, 384, -0.05690599, -0.03379071, -0.92530310, -10.06960583, -17.99879265, -25.92230606, -53.34697342, 29.61122513, -71.09032440, 4.21668053, -1.63532257, -119.22335815, 0.50591725, -0.00630666, 0.03894562, 0.86167932, 0.02836811, -0.03970787, -0.07158387, 0.00000000, 0.00000000, 0.00000000, 0.00000000
1, 1.0475, 385, -0.05714056, -0.04990675, -0.91150671, -10.63539696, -18.70119095, -25.65353584, -53.34697342, 29.61122513, -71.09032440, 4.19204140, -1.67724800, -119.29077148, 0.50542045, -0.00585951, 0.03894857, 0.86197388, 0.02787126, -0.02316158, -0.08539064, 0.00000000, 0.00000000, 0.00000000, 0.00000000
1, 1.0500, 386, -0.06031559, -0.06067668, -0.90123773, -10.63503838, -18.98051453, -25.58506012, -53.34697342, 29.61122513, -71.09032440, 4.16744757, -1.71991146, -119.35804749, 0.50492436, -0.00540705, 0.03895458, 0.86226714, 0.03030199, -0.01196212, -0.09566885, 0.00000000, 0.00000000, 0.00000000, 0.00000000
1, 1.0525, 387, -0.06164341, -0.06934558, -0.89471769, -10.06853104, -18.83676720, -25.71688271, -53.37620544, 30.10815430, -72.11341858, 4.14432907, -1.76221991, -119.42562866, 0.50442564, -0.00496363, 0.03896963, 0.86256105, 0.03089174, -0.00288935, -0.10219577, 0.00000000, 0.00000000, 0.00000000, 0.00000000
