SensorId, TimeStamp (s), FrameNumber, AccX (g), AccY (g), AccZ (g), GyroX (deg/s), GyroY (deg/s), GyroZ (deg/s), MagX (uT), MagY (uT), MagZ (uT), EulerX (deg), EulerY (deg), EulerZ (deg), QuatW, QuatX, QuatY, QuatZ, LinAccX (g), LinAccY (g), LinAccZ (g), Pressure (kPa), Altitude (m), Temperature (degC), HeaveMotion (m)
1, 0.0000, 0, 0.35884479, 0.02965663, 0.95323282, -2.92180896, 5.27094364, -2.86914420, 0.00000000, 0.00000000, 0.00000000, -179.17471313, 22.11531639, -144.66777039, -0.18489215, -0.29651201, 0.93554622, 0.05146760, 0.01762703, -0.01631178, -0.02690078, 0.00000000, 0.00000000, 0.00000000, 0.00000000
1, 0.0025, 1, 0.34869069, 0.02380365, 0.94922471, -3.41630507, 5.12941742, -2.94572878, 0.00000000, 0.00000000, 0.00000000, -179.18032837, 22.10238457, -144.66003418, -0.18476866, -0.29659164, 0.93554401, 0.05149226, 0.02757204, -0.01054852, -0.02280653, 0.00000000, 0.00000000, 0.00000000, 0.00000000
1, 0.0050, 2, 0.34930474, 0.01022553, 0.94867325, -3.69775248, 4.71036530, -3.02095366, 0.00000000, 0.00000000, 0.00000000, -179.18658447, 22.09050369, -144.65205383, -0.18465199, -0.29667351, 0.93553931, 0.05152508, 0.02676586, 0.00292970, -0.02217561, 0.00000000, 0.00000000, 0.00000000, 0.00000000
1, 0.0075, 3, 0.34882164, 0.01022632, 0.94818234, -3.69758844, 4.50071907, -2.95215750, 0.00000000, 0.00000000, 0.00000000, -179.19288635, 22.07914925, -144.64425659, -0.18453951, -0.29675373, 0.93553418, 0.05155952, 0.02706531, 0.00282787, -0.02160871, 0.00000000, 0.00000000, 0.00000000, 0.00000000
1, 0.0100, 4, 0.34882164, 0.01022632, 0.94818234, -3.69758844, 4.50071907, -2.95215750, 0.00000000, 0.00000000, 0.00000000, -179.19921875, 22.06779480, -144.63645935, -0.18442702, -0.29683396, 0.93552899, 0.05159397, 0.02688164, 0.00272678, -0.02153284, 0.00000000, 0.00000000, 0.00000000, 0.00000000
1, 0.0125, 5, 0.33462587, 0.01938687, 0.94470549, -3.77027106, 4.28763199, -2.53543162, 0.00000000, 0.00000000, 0.00000000, -179.20613098, 22.05698586, -144.62977600, -0.18431795, -0.29690570, 0.93552560, 0.05163295, 0.04090265, -0.00654466, -0.01798350, 0.00000000, 0.00000000, 0.00000000, 0.00000000
1, 0.0150, 6, 0.33462587, 0.01938687, 0.94470549, -3.77027106, 4.28763199, -2.53543162, 0.00000000, 0.00000000, 0.00000000, -179.21305847, 22.04618263, -144.62312317, -0.18420886, -0.29697740, 0.93552208, 0.05167193, 0.04072782, -0.00665559, -0.01791126, 0.00000000, 0.00000000, 0.00000000, 0.00000000
1, 0.0175, 7, 0.34113720, 0.00783133, 0.93788034, -4.05141973, 3.30932045, -2.40394521, 0.00000000, 0.00000000, 0.00000000, -179.22077942, 22.03783035, -144.61674500, -0.18411776, -0.29704645, 0.93551522, 0.05172351, 0.03408132, 0.00477544, -0.01102966, 0.00000000, 0.00000000, 0.00000000, 0.00000000
1, 0.0200, 8, 0.34113720, 0.00783133, 0.93788034, -4.05141973, 3.30932045, -2.40394521, 0.00000000, 0.00000000, 0.00000000, -179.22853088, 22.02947235, -144.61038208, -0.18402667, -0.29711550, 0.93550837, 0.05177510, 0.03394616, 0.00465094, -0.01097327, 0.00000000, 0.00000000, 0.00000000, 0.00000000
1, 0.0225, 9, 0.34290501, 0.02675330, 0.93945235, -4.33306122, 2.95994711, -2.47884822, 0.00000000, 0.00000000, 0.00000000, -179.23690796, 22.02198982, -144.60382080, -0.18394098, -0.29718685, 0.93549931, 0.05183440, 0.03205729, -0.01440572, -0.01249457, 0.00000000, 0.00000000, 0.00000000, 0.00000000
1, 0.0250, 10, 0.34290501, 0.02675330, 0.93945235, -4.33306122, 2.95994711, -2.47884822, 0.00000000, 0.00000000, 0.00000000, -179.24526978, 22.01450920, -144.59722900, -0.18385528, -0.29725817, 0.93549025, 0.05189370, 0.03193623, -0.01454042, -0.01244372, 0.00000000, 0.00000000, 0.00000000, 0.00000000
1, 0.0275, 11, 0.33041674, 0.01657064, 0.92858481, -5.18100071, 3.44659376, -2.90575957, 0.00000000, 0.00000000, 0.00000000, -179.25532532, 22.00580025, -144.58952332, -0.18375461, -0.29734212, 0.93547928, 0.05196542, 0.04428355, -0.00451983, -0.00151718, 0.00000000, 0.00000000, 0.00000000, 0.00000000
1, 0.0300, 12, 0.32899603, 0.01073274, 0.92951763, -5.24931097, 3.16991615, -3.18698049, 0.00000000, 0.00000000, 0.00000000, -179.26527405, 21.99776649, -144.58103943, -0.18365948, -0.29743183, 0.93546546, 0.05203922, 0.04557437, 0.00115782, -0.00239533, 0.00000000, 0.00000000, 0.00000000, 0.00000000
1, 0.0325, 13, 0.33098915, 0.01028828, 0.92563510, -5.24722147, 3.17296004, -3.53579283, 0.00000000, 0.00000000, 0.00000000, -179.27487183, 21.98972511, -144.57162476, -0.18356468, -0.29752859, 0.93544924, 0.05211156, 0.04345105, 0.00144776, 0.00154173, 0.00000000, 0.00000000, 0.00000000, 0.00000000
1, 0.0350, 14, 0.33585447, 0.01226127, 0.92519736, -5.45907593, 3.17237878, -3.60820270, 0.00000000, 0.00000000, 0.00000000, -179.28491211, 21.98167801, -144.56199646, -0.18346860, -0.29762772, 0.93543231, 0.05218793, 0.03845552, -0.00068714, 0.00203407, 0.00000000, 0.00000000, 0.00000000, 0.00000000
1, 0.0375, 15, 0.34071583, 0.01520826, 0.92427748, -5.67215347, 3.30993795, -3.54044414, 0.00000000, 0.00000000, 0.00000000, -179.29440308, 21.96493340, -144.55191040, -0.18330273, -0.29773459, 0.93542796, 0.05223770, 0.03332311, -0.00378635, 0.00306517, 0.00000000, 0.00000000, 0.00000000, 0.00000000
1, 0.0400, 16, 0.33834341, 0.00987171, 0.92228293, -5.67237759, 3.23965001, -3.47100353, 0.00000000, 0.00000000, 0.00000000, -179.30511475, 21.95672989, -144.54266357, -0.18320371, -0.29783180, 0.93541193, 0.05231854, 0.03556273, 0.00137730, 0.00511545, 0.00000000, 0.00000000, 0.00000000, 0.00000000
1, 0.0425, 17, 0.33447790, 0.00254936, 0.92513663, -5.60357571, 2.88738942, -2.98339391, 0.00000000, 0.00000000, 0.00000000, -179.31616211, 21.94942093, -144.53471375, -0.18311180, -0.29791841, 0.93539768, 0.05240221, 0.03930996, 0.00852158, 0.00231153, 0.00000000, 0.00000000, 0.00000000, 0.00000000
1, 0.0450, 18, 0.33101305, 0.00444436, 0.92852765, -5.95973539, 2.53214025, -2.43131709, 0.00000000, 0.00000000, 0.00000000, -179.32862854, 21.94301605, -144.52822876, -0.18302417, -0.29799473, 0.93538523, 0.05249766, 0.04267115, 0.00642504, -0.00103539, 0.00000000, 0.00000000, 0.00000000, 0.00000000
1, 0.0475, 19, 0.34084210, 0.00162727, 0.92372203, -6.24182463, 2.04219127, -2.36733937, 0.00000000, 0.00000000, 0.00000000, -179.34188843, 21.93784523, -144.52194214, -0.18294461, -0.29807025, 0.93537074, 0.05260230, 0.03275833, 0.00902811, 0.00380647, 0.00000000, 0.00000000, 0.00000000, 0.00000000
1, 0.0500, 20, 0.35399529, 0.00364537, 0.92383838, -5.81369877, 1.21024835, -2.57519603, 0.00000000, 0.00000000, 0.00000000, -179.35383606, 21.93474770, -144.51502991, -0.18288507, -0.29814741, 0.93535215, 0.05270279, 0.01955498, 0.00681670, 0.00371260, 0.00000000, 0.00000000, 0.00000000, 0.00000000
1, 0.0525, 21, 0.35877600, 0.01190360, 0.92635429, -5.31662130, 0.72588015, -2.64103484, 0.00000000, 0.00000000, 0.00000000, -179.36447144, 21.93286133, -144.50791931, -0.18283871, -0.29822335, 0.93533170, 0.05279602, 0.01474369, -0.00161366, 0.00121087, 0.00000000, 0.00000000, 0.00000000, 0.00000000
1, 0.0550, 22, 0.35872936, 0.01235588, 0.93073958, -5.31500912, 0.44838139, -2.78184795, 0.00000000, 0.00000000, 0.00000000, -179.37496948, 21.93165779, -144.50042725, -0.18279819, -0.29830185, 0.93530935, 0.05289048, 0.01477090, -0.00223572, -0.00316483, 0.00000000, 0.00000000, 0.00000000, 0.00000000
1, 0.0575, 23, 0.35870373, 0.00940470, 0.93608177, -5.73868799, 0.58718598, -2.99578643, 0.00000000, 0.00000000, 0.00000000, -179.38630676, 21.93011093, -144.49238586, -0.18275233, -0.29838654, 0.93528557, 0.05299181, 0.01477150, 0.00053203, -0.00849492, 0.00000000, 0.00000000, 0.00000000, 0.00000000
1, 0.0600, 24, 0.35865927, 0.01278989, 0.93755978, -5.81025124, 0.72553867, -2.92626238, 0.00000000, 0.00000000, 0.00000000, -179.39788818, 21.92822456, -144.48451233, -0.18270309, -0.29847026, 0.93526268, 0.05309397, 0.01478541, -0.00304064, -0.00995845, 0.00000000, 0.00000000, 0.00000000, 0.00000000
1, 0.0625, 25, 0.35668164, 0.01520059, 0.93804324, -5.66761637, 1.07777143, -3.27169943, 0.00000000, 0.00000000, 0.00000000, -179.40878296, 21.92543983, -144.47573853, -0.18264797, -0.29856086, 0.93523914, 0.05318956, 0.01671797, -0.00562743, -0.01042211, 0.00000000, 0.00000000, 0.00000000, 0.00000000
1, 0.0725, 26, 0.36305273, 0.01086408, 0.93904650, -4.88500214, 0.59864277, -3.75258255, 0.00000000, 0.00000000, 0.00000000, -179.44395447, 21.91647148, -144.43479919, -0.18246402, -0.29895580, 0.93513006, 0.05351821, 0.01020163, -0.00185971, -0.01136106, 0.00000000, 0.00000000, 0.00000000, 0.00000000
1, 0.0750, 27, 0.36301729, 0.01376777, 0.94003516, -4.95604372, 0.24802424, -3.54578853, 0.00000000, 0.00000000, 0.00000000, -179.45277405, 21.91575813, -144.42526245, -0.18243077, -0.29904816, 0.93510216, 0.05360359, 0.01022557, -0.00490626, -0.01234389, 0.00000000, 0.00000000, 0.00000000, 0.00000000
1, 0.0775, 28, 0.36544183, 0.01328233, 0.94200039, -5.09700537, -0.10177343, -3.47940111, 0.00000000, 0.00000000, 0.00000000, -179.46202087, 21.91593552, -144.41587830, -0.18240365, -0.29913932, 0.93507308, 0.05369439, 0.00780386, -0.00457048, -0.01430869, 0.00000000, 0.00000000, 0.00000000, 0.00000000
1, 0.0800, 29, 0.36786780, 0.01475217, 0.94202745, -5.02430868, -0.79816782, -3.48173904, 0.00000000, 0.00000000, 0.00000000, -179.47106934, 21.91784859, -144.40647888, -0.18239124, -0.29922941, 0.93504125, 0.05378824, 0.00540888, -0.00618697, -0.01434690, 0.00000000, 0.00000000, 0.00000000, 0.00000000
1, 0.0825, 30, 0.37176549, 0.01477146, 0.94254595, -5.09518480, -1.35843253, -3.20614839, 0.00000000, 0.00000000, 0.00000000, -179.48056030, 21.92117310, -144.39779663, -0.18238945, -0.29931352, 0.93500894, 0.05388829, 0.00156501, -0.00636027, -0.01488561, 0.00000000, 0.00000000, 0.00000000, 0.00000000
1, 0.0850, 31, 0.37223050, 0.01573369, 0.94401568, -4.95237207, -2.12532663, -3.06840038, 0.00000000, 0.00000000, 0.00000000, -179.48983765, 21.92641830, -144.38946533, -0.18240407, -0.29939330, 0.93497461, 0.05399098, 0.00118491, -0.00747298, -0.01638824, 0.00000000, 0.00000000, 0.00000000, 0.00000000
1, 0.0875, 32, 0.37514791, 0.01574360, 0.94501334, -5.02183151, -2.89341116, -2.93330050, 0.00000000, 0.00000000, 0.00000000, -179.49687195, 21.93199348, -144.38043213, -0.18242694, -0.29947522, 0.93493885, 0.05407735, -0.00164220, -0.00759693, -0.01742131, 0.00000000, 0.00000000, 0.00000000, 0.00000000
1, 0.0900, 33, 0.37368381, 0.01475735, 0.94597059, -5.16385317, -3.31471419, -2.65794826, 0.00000000, 0.00000000, 0.00000000, -179.50708008, 21.94022560, -144.37318420, -0.18246394, -0.29954609, 0.93490219, 0.05419376, -0.00004485, -0.00677636, -0.01843065, 0.00000000, 0.00000000, 0.00000000, 0.00000000
1, 0.0925, 34, 0.37609965, 0.01524224, 0.94794071, -5.23428154, -3.73440313, -2.52123809, 0.00000000, 0.00000000, 0.00000000, -179.51757812, 21.94950485, -144.36630249, -0.18250889, -0.29961395, 0.93486464, 0.05431489, -0.00231045, -0.00743196, -0.02045995, 0.00000000, 0.00000000, 0.00000000, 0.00000000
1, 0.0950, 35, 0.37803674, 0.01524275, 0.94941747, -5.23434162, -4.01433754, -2.38300133, 0.00000000, 0.00000000, 0.00000000, -179.52824402, 21.95949364, -144.35980225, -0.18255939, -0.29967862, 0.93482685, 0.05443840, -0.00408584, -0.00760542, -0.02200043, 0.00000000, 0.00000000, 0.00000000, 0.00000000
1, 0.0975, 36, 0.37901345, 0.01671495, 0.94797170, -5.09394598, -4.36498356, -2.03403401, 0.00000000, 0.00000000, 0.00000000, -179.53889465, 21.97036552, -144.35421753, -0.18261752, -0.29973522, 0.93479007, 0.05456273, -0.00488663, -0.00925054, -0.02062422, 0.00000000, 0.00000000, 0.00000000, 0.00000000
1, 0.1000, 37, 0.38192216, 0.01769518, 0.94897425, -5.09536409, -4.15716362, -1.89354324, 0.00000000, 0.00000000, 0.00000000, -179.54968262, 21.98072052, -144.34901428, -0.18267125, -0.29978922, 0.93475515, 0.05468629, -0.00762770, -0.01040603, -0.02169299, 0.00000000, 0.00000000, 0.00000000, 0.00000000
1, 0.1025, 38, 0.38292995, 0.01674885, 0.94654238, -5.09522963, -4.50677681, -1.75562835, 0.00000000, 0.00000000, 0.00000000, -179.56060791, 21.99195099, -144.34419250, -0.18273194, -0.29983994, 0.93471962, 0.05481268, -0.00845373, -0.00963715, -0.01933319, 0.00000000, 0.00000000, 0.00000000, 0.00000000
1, 0.1050, 39, 0.38536099, 0.01871116, 0.94559789, -5.30733824, -4.71761370, -1.68947959, 0.00000000, 0.00000000, 0.00000000, -179.57214355, 22.00371742, -144.33953857, -0.18279544, -0.29988989, 0.93468332, 0.05494503, -0.01069435, -0.01178656, -0.01846421, 0.00000000, 0.00000000, 0.00000000, 0.00000000
1, 0.1075, 40, 0.38929152, 0.01875603, 0.94270754, -5.30839777, -4.78911924, -1.48051429, 0.00000000, 0.00000000, 0.00000000, -179.58387756, 22.01566315, -144.33546448, -0.18286014, -0.29993549, 0.93464816, 0.05507870, -0.01443157, -0.01202197, -0.01565045, 0.00000000, 0.00000000, 0.00000000, 0.00000000
1, 0.1100, 41, 0.39172727, 0.02072200, 0.94127607, -5.02587605, -5.20804119, -1.19986641, 0.00000000, 0.00000000, 0.00000000, -179.59518433, 22.02865982, -144.33212280, -0.18293490, -0.29997376, 0.93461353, 0.05521047, -0.01665706, -0.01417158, -0.01430273, 0.00000000, 0.00000000, 0.00000000, 0.00000000
1, 0.1125, 42, 0.38927850, 0.02021153, 0.94271487, -5.24010229, -5.56188869, -0.71578711, 0.00000000, 0.00000000, 0.00000000, -179.60752869, 22.04255295, -144.33007812, -0.18301488, -0.30000257, 0.93458033, 0.05535086, -0.01398352, -0.01386132, -0.01583130, 0.00000000, 0.00000000, 0.00000000, 0.00000000
1, 0.1150, 43, 0.39032570, 0.01538753, 0.93977636, -5.66651201, -5.49702454, -0.44171062, 0.00000000, 0.00000000, 0.00000000, -179.62121582, 22.05628967, -144.32879639, -0.18309042, -0.30002755, 0.93454862, 0.05550062, -0.01480851, -0.00925924, -0.01298124, 0.00000000, 0.00000000, 0.00000000, 0.00000000
1, 0.1175, 44, 0.39619485, 0.01738819, 0.93642467, -5.87884426, -5.77814913, -0.30612156, 0.00000000, 0.00000000, 0.00000000, -179.63555908, 22.07073021, -144.32788086, -0.18317012, -0.30005026, 0.93451643, 0.05565708, -0.02044407, -0.01149261, -0.00972271, 0.00000000, 0.00000000, 0.00000000, 0.00000000
1, 0.1200, 45, 0.39905617, 0.02419406, 0.93696952, -6.23307896, -5.92070770, -0.17165358, 0.00000000, 0.00000000, 0.00000000, -179.65093994, 22.08553123, -144.32730103, -0.18325025, -0.30007148, 0.93448406, 0.05582223, -0.02306602, -0.01854770, -0.01036310, 0.00000000, 0.00000000, 0.00000000, 0.00000000
1, 0.1225, 46, 0.39903012, 0.02710506, 0.93698418, -6.51858616, -5.78598022, 0.17427257, 0.00000000, 0.00000000, 0.00000000, -179.66737366, 22.09999657, -144.32768250, -0.18332532, -0.30008695, 0.93445414, 0.05599370, -0.02280605, -0.02172509, -0.01047123, 0.00000000, 0.00000000, 0.00000000, 0.00000000
1, 0.1250, 47, 0.39613912, 0.02467298, 0.93548733, -6.87301445, -5.85886002, 0.30906263, 0.00000000, 0.00000000, 0.00000000, -179.68482971, 22.11464882, -144.32841492, -0.18339938, -0.30010095, 0.93442422, 0.05617341, -0.01967809, -0.01957591, -0.00906891, 0.00000000, 0.00000000, 0.00000000, 0.00000000
1, 0.1275, 48, 0.39621469, 0.01886926, 0.93302310, -6.94560814, -5.65204620, 0.51843351, 0.00000000, 0.00000000, 0.00000000, -179.70269775, 22.12878609, -144.32974243, -0.18346848, -0.30011123, 0.93439651, 0.05635408, -0.01952511, -0.01406148, -0.00669599, 0.00000000, 0.00000000, 0.00000000, 0.00000000
1, 0.1300, 49, 0.39821470, 0.01501037, 0.93155831, -6.87643242, -5.23418331, 0.59101087, 0.00000000, 0.00000000, 0.00000000, -179.72045898, 22.14188004, -144.33126831, -0.18352944, -0.30012029, 0.93437093, 0.05653089, -0.02131340, -0.01049020, -0.00531590, 0.00000000, 0.00000000, 0.00000000, 0.00000000
1, 0.1325, 50, 0.40161628, 0.01648595, 0.93159330, -7.30097675, -5.23656321, 0.58571547, 0.00000000, 0.00000000, 0.00000000, -179.73927307, 22.15497780, -144.33277893, -0.18358767, -0.30013111, 0.93434483, 0.05671635, -0.02450327, -0.01227047, -0.00543565, 0.00000000, 0.00000000, 0.00000000, 0.00000000
1, 0.1350, 51, 0.40208888, 0.02136239, 0.92869979, -7.86906528, -4.96284723, 0.78923047, 0.00000000, 0.00000000, 0.00000000, -179.75971985, 22.16739082, -144.33485413, -0.18363632, -0.30014041, 0.93432039, 0.05691241, -0.02477515, -0.01747788, -0.00262237, 0.00000000, 0.00000000, 0.00000000, 0.00000000
1, 0.1375, 52, 0.40165567, 0.01895927, 0.92527473, -8.15273666, -5.03533125, 0.92490315, 0.00000000, 0.00000000, 0.00000000, -179.77684021, 22.18568230, -144.33514404, -0.18374076, -0.30015576, 0.93428349, 0.05709944, -0.02404640, -0.01535170, 0.00068313, 0.00000000, 0.00000000, 0.00000000, 0.00000000
1, 0.1400, 53, 0.39928576, 0.01069346, 0.92570049, -8.22571659, -4.68915749, 1.13491833, 0.00000000, 0.00000000, 0.00000000, -179.79853821, 22.19741631, -144.33816528, -0.18378106, -0.30015975, 0.93426186, 0.05730236, -0.02148685, -0.00743692, 0.00018150, 0.00000000, 0.00000000, 0.00000000, 0.00000000
1, 0.1425, 54, 0.40174973, 0.00633035, 0.92715913, -8.37067986, -4.20524168, 1.48421979, 0.00000000, 0.00000000, 0.00000000, -179.82096863, 22.20794296, -144.34211731, -0.18381009, -0.30015782, 0.93424422, 0.05750646, -0.02378074, -0.00343644, -0.00134546, 0.00000000, 0.00000000, 0.00000000, 0.00000000
1, 0.1450, 55, 0.40176854, 0.00634497, 0.92521119, -8.65638065, -4.00083494, 1.83046806, 0.00000000, 0.00000000, 0.00000000, -179.84446716, 22.21795654, -144.34704590, -0.18383265, -0.30015022, 0.93422931, 0.05771644, -0.02363772, -0.00383092, 0.00053751, 0.00000000, 0.00000000, 0.00000000, 0.00000000
1, 0.1475, 56, 0.40080702, 0.00635019, 0.92374235, -9.01261520, -3.72653723, 2.10639310, 0.00000000, 0.00000000, 0.00000000, -179.86912537, 22.22728729, -144.35269165, -0.18384691, -0.30013871, 0.93421674, 0.05793297, -0.02252546, -0.00423495, 0.00194585, 0.00000000, 0.00000000, 0.00000000, 0.00000000
1, 0.1500, 57, 0.40428671, -0.00090722, 0.92373329, -9.08482075, -3.65908122, 2.31512022, 0.00000000, 0.00000000, 0.00000000, -179.89421082, 22.23644257, -144.35893250, -0.18385908, -0.30012336, 0.93420571, 0.05815138, -0.02585722, 0.00261732, 0.00189513, 0.00000000, 0.00000000, 0.00000000, 0.00000000
1, 0.1525, 58, 0.40038362, -0.00190780, 0.92467082, -9.30051041, -3.03559446, 2.59442043, 0.00000000, 0.00000000, 0.00000000, -179.92010498, 22.24404716, -144.36592102, -0.18385676, -0.30010396, 0.93419874, 0.05837122, -0.02183127, 0.00319945, 0.00090825, 0.00000000, 0.00000000, 0.00000000, 0.00000000
1, 0.1550, 59, 0.40285659, -0.00040142, 0.91982806, -9.44421959, -2.54985166, 2.73443484, 0.00000000, 0.00000000, 0.00000000, -179.94650269, 22.25042915, -144.37329102, -0.18384339, -0.30008283, 0.93419427, 0.05859135, -0.02420119, 0.00126649, 0.00570929, 0.00000000, 0.00000000, 0.00000000, 0.00000000
1, 0.1575, 60, 0.39944020, -0.00286560, 0.92222309, -9.30498695, -2.48242307, 3.08533406, 0.00000000, 0.00000000, 0.00000000, -179.97293091, 22.25663948, -144.38162231, -0.18382911, -0.30005410, 0.93419260, 0.05880963, -0.02068445, 0.00330392, 0.00327349, 0.00000000, 0.00000000, 0.00000000, 0.00000000
1, 0.1600, 61, 0.39948106, -0.00478799, 0.91977841, -9.37604237, -1.92356074, 2.87774110, 0.00000000, 0.00000000, 0.00000000, -179.99931335, 22.26144600, -144.38940430, -0.18380325, -0.30003059, 0.93419170, 0.05902485, -0.02064768, 0.00480014, 0.00568640, 0.00000000, 0.00000000, 0.00000000, 0.00000000
1, 0.1625, 62, 0.39904639, -0.00914639, 0.91829151, -9.23646832, -1.22597647, 2.88272667, 0.00000000, 0.00000000, 0.00000000, 179.97476196, 22.26451492, -144.39718628, -0.18376407, -0.30000731, 0.93419373, 0.05923268, -0.02016345, 0.00873792, 0.00715304, 0.00000000, 0.00000000, 0.00000000, 0.00000000
1, 0.1650, 63, 0.39805377, -0.00672264, 0.91780889, -9.02439022, -1.15510726, 2.88569641, 0.00000000, 0.00000000, 0.00000000, 179.94926453, 22.26739693, -144.40496826, -0.18372482, -0.29998320, 0.93419629, 0.05943574, -0.01912424, 0.00590207, 0.00761628, 0.00000000, 0.00000000, 0.00000000, 0.00000000
1, 0.1675, 64, 0.39753094, -0.00333300, 0.91830903, -9.16526413, -1.08500397, 2.74472809, 0.00000000, 0.00000000, 0.00000000, 179.92352295, 22.27010155, -144.41239929, -0.18368340, -0.29996261, 0.93419802, 0.05964063, -0.01855776, 0.00209698, 0.00709778, 0.00000000, 0.00000000, 0.00000000, 0.00000000
1, 0.1700, 65, 0.39753747, -0.00723625, 0.92121136, -9.16681576, -0.52757108, 2.74730444, 0.00000000, 0.00000000, 0.00000000, 179.89781189, 22.27141190, -144.41981506, -0.18363059, -0.29994267, 0.93420196, 0.05984193, -0.01854313, 0.00558466, 0.00418615, 0.00000000, 0.00000000, 0.00000000, 0.00000000
1, 0.1725, 66, 0.39658898, -0.00868652, 0.91973519, -9.23754311, -0.38800082, 2.67730355, 0.00000000, 0.00000000, 0.00000000, 179.87197876, 22.27236748, -144.42704773, -0.18357453, -0.29992458, 0.93420577, 0.06004346, -0.01757920, 0.00661766, 0.00565517, 0.00000000, 0.00000000, 0.00000000, 0.00000000
1, 0.1750, 67, 0.39758629, -0.01110662, 0.91973084, -9.23731995, -0.31771290, 2.60786295, 0.00000000, 0.00000000, 0.00000000, 179.84620667, 22.27314377, -144.43409729, -0.18351716, -0.29990801, 0.93420947, 0.06024425, -0.01856396, 0.00862165, 0.00565326, 0.00000000, 0.00000000, 0.00000000, 0.00000000
1, 0.1775, 68, 0.39999381, -0.00916258, 0.92122132, -9.23828983, 0.03068260, 2.60947299, 0.00000000, 0.00000000, 0.00000000, 179.82043457, 22.27305031, -144.44114685, -0.18345267, -0.29989183, 0.93421453, 0.06044278, -0.02097300, 0.00626143, 0.00416225, 0.00000000, 0.00000000, 0.00000000, 0.00000000
1, 0.1800, 69, 0.39897481, -0.00431665, 0.92123789, -9.31024075, 0.30839354, 2.67964149, 0.00000000, 0.00000000, 0.00000000, 179.79441833, 22.27225876, -144.44839478, -0.18338193, -0.29987487, 0.93422103, 0.06064124, -0.01996678, 0.00099527, 0.00414956, 0.00000000, 0.00000000, 0.00000000, 0.00000000
1, 0.1825, 70, 0.39653111, -0.00433465, 0.92170513, -9.45353222, 0.79474503, 2.74989295, 0.00000000, 0.00000000, 0.00000000, 179.76797485, 22.27024651, -144.45582581, -0.18330024, -0.29985768, 0.93422967, 0.06083972, -0.01755560, 0.00058607, 0.00369406, 0.00000000, 0.00000000, 0.00000000, 0.00000000
1, 0.1850, 71, 0.39416769, -0.01015271, 0.91922116, -9.45475578, 0.93288571, 2.89006233, 0.00000000, 0.00000000, 0.00000000, 179.74137878, 22.26788712, -144.46360779, -0.18321553, -0.29983783, 0.93423963, 0.06103788, -0.01523027, 0.00597459, 0.00619179, 0.00000000, 0.00000000, 0.00000000, 0.00000000
1, 0.1875, 72, 0.39227581, -0.01256078, 0.91529727, -9.45392036, 0.93410331, 2.75053716, 0.00000000, 0.00000000, 0.00000000, 179.71250916, 22.27003479, -144.47181702, -0.18316196, -0.29981598, 0.93424237, 0.06126565, -0.01330364, 0.00791661, 0.01009923, 0.00000000, 0.00000000, 0.00000000, 0.00000000
1, 0.1900, 73, 0.39372474, -0.01305195, 0.91725463, -8.95861816, 0.93687999, 2.75671506, 0.00000000, 0.00000000, 0.00000000, 179.68731689, 22.26765633, -144.47924805, -0.18308060, -0.29979685, 0.93425214, 0.06145313, -0.01479105, 0.00800049, 0.00815535, 0.00000000, 0.00000000, 0.00000000, 0.00000000
1, 0.1925, 74, 0.39662838, -0.01256420, 0.91922867, -8.60689163, 1.07578635, 3.04082203, 0.00000000, 0.00000000, 0.00000000, 179.66268921, 22.26492500, -144.48744202, -0.18299828, -0.29977065, 0.93426466, 0.06163367, -0.01773879, 0.00711492, 0.00619715, 0.00000000, 0.00000000, 0.00000000, 0.00000000
1, 0.1950, 75, 0.39419153, -0.00964562, 0.91630167, -8.53632736, 1.14586210, 3.04202652, 0.00000000, 0.00000000, 0.00000000, 179.63824463, 22.26201439, -144.49565125, -0.18291500, -0.29974428, 0.93427765, 0.06181231, -0.01534897, 0.00380135, 0.00914103, 0.00000000, 0.00000000, 0.00000000, 0.00000000
1, 0.1975, 76, 0.39420709, -0.00767938, 0.91290259, -8.32386208, 1.07737303, 3.04435229, 0.00000000, 0.00000000, 0.00000000, 179.61431885, 22.25926590, -144.50384521, -0.18283449, -0.29971692, 0.93429065, 0.06198708, -0.01540891, 0.00144868, 0.01255566, 0.00000000, 0.00000000, 0.00000000, 0.00000000
1, 0.2000, 77, 0.39281234, -0.01007727, 0.90800864, -8.03854847, 1.01232457, 2.69874811, 0.00000000, 0.00000000, 0.00000000, 179.59147644, 22.25668907, -144.51110840, -0.18275765, -0.29969534, 0.93430150, 0.06215507, -0.01405579, 0.00347736, 0.01746405, 0.00000000, 0.00000000, 0.00000000, 0.00000000
1, 0.2025, 78, 0.39468619, -0.00670618, 0.91291142, -7.68212032, 0.66834760, 2.42250085, 0.00000000, 0.00000000, 0.00000000, 179.56979370, 22.25497437, -144.51763916, -0.18269052, -0.29967749, 0.93430954, 0.06231695, -0.01595733, -0.00024398, 0.01257009, 0.00000000, 0.00000000, 0.00000000, 0.00000000
1, 0.2050, 79, 0.39356345, -0.00242946, 0.92412615, -7.68067265, 0.60049492, 2.21289158, 0.00000000, 0.00000000, 0.00000000, 179.54832458, 22.25343323, -144.52362061, -0.18262506, -0.29966378, 0.93431598, 0.06247840, -0.01485950, -0.00486744, 0.00136286, 0.00000000, 0.00000000, 0.00000000, 0.00000000
1, 0.2075, 80, 0.39394605, 0.00139992, 0.93145436, -8.17736244, 0.94550496, 2.27808595, 0.00000000, 0.00000000, 0.00000000, 179.52555847, 22.25102615, -144.52975464, -0.18254921, -0.29965118, 0.93432337, 0.06264798, -0.01528099, -0.00906468, -0.00595242, 0.00000000, 0.00000000, 0.00000000, 0.00000000
1, 0.2100, 81, 0.39099792, 0.00429736, 0.93095839, -8.74177837, 0.80479974, 2.06109405, 0.00000000, 0.00000000, 0.00000000, 179.50161743, 22.24896812, -144.53529358, -0.18247284, -0.29964507, 0.93432814, 0.06282911, -0.01236609, -0.01234921, -0.00544608, 0.00000000, 0.00000000, 0.00000000, 0.00000000
1, 0.2125, 82, 0.39004907, 0.00235827, 0.92996681, -9.02236080, 0.52693194, 1.77722573, 0.00000000, 0.00000000, 0.00000000, 179.47724915, 22.24761009, -144.54008484, -0.18240069, -0.29964545, 0.93432951, 0.06301665, -0.01143918, -0.01080383, -0.00444907, 0.00000000, 0.00000000, 0.00000000, 0.00000000
1, 0.2150, 83, 0.38814017, 0.00237968, 0.92556816, -8.73752499, 0.18134074, 1.63962078, 0.00000000, 0.00000000, 0.00000000, 179.45372009, 22.24712372, -144.54450989, -0.18233763, -0.29964706, 0.93432891, 0.06320009, -0.00953815, -0.01120516, -0.00005060, 0.00000000, 0.00000000, 0.00000000, 0.00000000
1, 0.2175, 84, 0.39020702, 0.00003840, 0.91583204, -8.45230198, -0.30360875, 1.50137186, 0.00000000, 0.00000000, 0.00000000, 179.43106079, 22.24784470, -144.54856873, -0.18228649, -0.29964966, 0.93432581, 0.06338034, -0.01159334, -0.00923001, 0.00967711, 0.00000000, 0.00000000, 0.00000000, 0.00000000
1, 0.2200, 85, 0.38974199, -0.00092384, 0.91436225, -8.16830349, -0.65041763, 1.50329185, 0.00000000, 0.00000000, 0.00000000, 179.40908813, 22.24943542, -144.55265808, -0.18224427, -0.29965061, 0.93432176, 0.06355707, -0.01110262, -0.00862246, 0.01113278, 0.00000000, 0.00000000, 0.00000000, 0.00000000
1, 0.2225, 86, 0.39120248, 0.00152521, 0.91243833, -8.23650742, -1.41667557, 1.42910421, 0.00000000, 0.00000000, 0.00000000, 179.38702393, 22.25293732, -144.55654907, -0.18221733, -0.29965228, 0.93431401, 0.06373991, -0.01250652, -0.01142772, 0.01302976, 0.00000000, 0.00000000, 0.00000000, 0.00000000
1, 0.2250, 87, 0.39307594, 0.00440749, 0.91782564, -8.51508904, -2.11140037, 1.00377882, 0.00000000, 0.00000000, 0.00000000, 179.36468506, 22.25819206, -144.55932617, -0.18220329, -0.29966271, 0.93430030, 0.06393127, -0.01429513, -0.01467044, 0.00760388, 0.00000000, 0.00000000, 0.00000000, 0.00000000
1, 0.2275, 88, 0.39307594, 0.00440749, 0.91782564, -8.51508904, -2.11140037, 1.00377882, 0.00000000, 0.00000000, 0.00000000, 179.34234619, 22.26344109, -144.56210327, -0.18218926, -0.29967314, 0.93428659, 0.06412263, -0.01421035, -0.01503087, 0.00756514, 0.00000000, 0.00000000, 0.00000000, 0.00000000
1, 0.2300, 89, 0.39203206, 0.00727986, 0.92221528, -8.78762722, -2.86728144, -0.39854345, 0.00000000, 0.00000000, 0.00000000, 179.32075500, 22.27061653, -144.56111145, -0.18219079, -0.29971218, 0.93426031, 0.06431891, -0.01305056, -0.01825148, 0.00312394, 0.00000000, 0.00000000, 0.00000000, 0.00000000
1, 0.2325, 90, 0.39203206, 0.00727986, 0.92221528, -8.78762722, -2.86728144, -0.39854345, 0.00000000, 0.00000000, 0.00000000, 179.29914856, 22.27779770, -144.56013489, -0.18219234, -0.29975122, 0.93423396, 0.06451519, -0.01293457, -0.01859967, 0.00307220, 0.00000000, 0.00000000, 0.00000000, 0.00000000
1, 0.2350, 91, 0.39304671, 0.00291911, 0.92220116, -8.57137108, -2.79032421, -1.09319842, 0.00000000, 0.00000000, 0.00000000, 179.27880859, 22.28480530, -144.55728149, -0.18219469, -0.29980364, 0.93420368, 0.06470379, -0.01383594, -0.01456688, 0.00303596, 0.00000000, 0.00000000, 0.00000000, 0.00000000
1, 0.2375, 92, 0.39304671, 0.00291911, 0.92220116, -8.57137108, -2.79032421, -1.09319842, 0.00000000, 0.00000000, 0.00000000, 179.26324463, 22.29595184, -144.55215454, -0.18224195, -0.29986498, 0.93416327, 0.06486781, -0.01365605, -0.01481740, 0.00295889, 0.00000000, 0.00000000, 0.00000000, 0.00000000
1, 0.2400, 93, 0.39455673, 0.00247543, 0.91782773, -8.63912773, -3.41600609, -1.30626667, 0.00000000, 0.00000000, 0.00000000, 179.24291992, 22.30452919, -144.54873657, -0.18225689, -0.29992113, 0.93412894, 0.06506103, -0.01502755, -0.01470082, 0.00727123, 0.00000000, 0.00000000, 0.00000000, 0.00000000
1, 0.2425, 94, 0.39455673, 0.00247543, 0.91782773, -8.63912773, -3.41600609, -1.30626667, 0.00000000, 0.00000000, 0.00000000, 179.22262573, 22.31311607, -144.54533386, -0.18227182, -0.29997724, 0.93409455, 0.06525425, -0.01488892, -0.01502791, 0.00721008, 0.00000000, 0.00000000, 0.00000000, 0.00000000
1, 0.2450, 95, 0.39503476, 0.00198217, 0.91929018, -8.56562519, -4.25115013, -1.37901115, 0.00000000, 0.00000000, 0.00000000, 179.20256042, 22.32378578, -144.54176331, -0.18230437, -0.30003336, 0.93405640, 0.06545115, -0.01519466, -0.01485751, 0.00567234, 0.00000000, 0.00000000, 0.00000000, 0.00000000
1, 0.2475, 96, 0.39307454, 0.00245221, 0.91976380, -8.56398392, -4.38868189, -1.58894265, 0.00000000, 0.00000000, 0.00000000, 179.18272400, 22.33481598, -144.53764343, -0.18234000, -0.30009350, 0.93401623, 0.06564806, -0.01305640, -0.01564682, 0.00512111, 0.00000000, 0.00000000, 0.00000000, 0.00000000
1, 0.2500, 97, 0.39212462, -0.00095334, 0.92022580, -8.49197197, -4.38645887, -1.79734755, 0.00000000, 0.00000000, 0.00000000, 179.16326904, 22.34584236, -144.53295898, -0.18237635, -0.30015764, 0.93397486, 0.06584267, -0.01192844, -0.01255415, 0.00458133, 0.00000000, 0.00000000, 0.00000000, 0.00000000
1, 0.2525, 98, 0.39213803, -0.00192002, 0.91973388, -8.49177742, -4.45613813, -1.79766965, 0.00000000, 0.00000000, 0.00000000, 179.14381409, 22.35704613, -144.52827454, -0.18241411, -0.30022165, 0.93393314, 0.06603773, -0.01176101, -0.01190030, 0.00499433, 0.00000000, 0.00000000, 0.00000000, 0.00000000
1, 0.2550, 99, 0.39311361, -0.00191428, 0.91974181, -8.49177742, -4.45613813, -1.79766965, 0.00000000, 0.00000000, 0.00000000, 179.12437439, 22.36825371, -144.52359009, -0.18245187, -0.30028567, 0.93389142, 0.06623279, -0.01255569, -0.01221881, 0.00490719, 0.00000000, 0.00000000, 0.00000000, 0.00000000
1, 0.2575, 100, 0.39362708, -0.00531123, 0.92021561, -8.56292343, -4.31717634, -1.79790807, 0.00000000, 0.00000000, 0.00000000, 179.10475159, 22.37911606, -144.51892090, -0.18248633, -0.30035016, 0.93385005, 0.06642838, -0.01289386, -0.00913747, 0.00435644, 0.00000000, 0.00000000, 0.00000000, 0.00000000
1, 0.2600, 101, 0.39314255, -0.00726572, 0.92166287, -8.42360210, -3.82984710, -1.65436363, 0.00000000, 0.00000000, 0.00000000, 179.08532715, 22.38875389, -144.51460266, -0.18251155, -0.30041185, 0.93381172, 0.06661850, -0.01225377, -0.00749529, 0.00284010, 0.00000000, 0.00000000, 0.00000000, 0.00000000
1, 0.2625, 102, 0.39366111, -0.01017019, 0.92116517, -8.49532986, -3.48184800, -1.65363598, 0.00000000, 0.00000000, 0.00000000, 179.06573486, 22.39752388, -144.51028442, -0.18252921, -0.30047429, 0.93377471, 0.06680781, -0.01263076, -0.00490601, 0.00327456, 0.00000000, 0.00000000, 0.00000000, 0.00000000
1, 0.2650, 103, 0.39563835, -0.01306971, 0.92116624, -8.49468803, -3.41095138, -1.79283893, 0.00000000, 0.00000000, 0.00000000, 179.04627991, 22.40612793, -144.50558472, -0.18254560, -0.30053964, 0.93373686, 0.06699608, -0.01446927, -0.00231932, 0.00321096, 0.00000000, 0.00000000, 0.00000000, 0.00000000
1, 0.2675, 104, 0.39557976, -0.00969548, 0.92410529, -8.14290237, -2.99211097, -1.64696884, 0.00000000, 0.00000000, 0.00000000, 179.02758789, 22.41367149, -144.50126648, -0.18255559, -0.30060127, 0.93370235, 0.06717502, -0.01428887, -0.00599458, 0.00021660, 0.00000000, 0.00000000, 0.00000000, 0.00000000
1, 0.2700, 105, 0.39312342, -0.00776915, 0.92409533, -8.07400990, -2.92447042, -1.36671424, 0.00000000, 0.00000000, 0.00000000, 179.00874329, 22.42104530, -144.49771118, -0.18256420, -0.30065694, 0.93366975, 0.06735322, -0.01171363, -0.00822379, 0.00017244, 0.00000000, 0.00000000, 0.00000000, 0.00000000
1, 0.2725, 106, 0.39266598, -0.01116818, 0.92407423, -8.00605869, -2.36846733, -1.15396810, 0.00000000, 0.00000000, 0.00000000, 178.98988342, 22.42701530, -144.49470520, -0.18256164, -0.30070886, 0.93364102, 0.06752723, -0.01115984, -0.00512841, 0.00014842, 0.00000000, 0.00000000, 0.00000000, 0.00000000
1, 0.2750, 107, 0.39171681, -0.01359609, 0.92356718, -8.07781601, -2.16043544, -1.08412206, 0.00000000, 0.00000000, 0.00000000, 178.97076416, 22.43246269, -144.49188232, -0.18255424, -0.30075994, 0.93361336, 0.06770162, -0.01012278, -0.00300818, 0.00061369, 0.00000000, 0.00000000, 0.00000000, 0.00000000
1, 0.2775, 108, 0.39219558, -0.01311171, 0.92406052, -7.93900251, -2.09361577, -0.66346008, 0.00000000, 0.00000000, 0.00000000, 178.95156860, 22.43772888, -144.49018860, -0.18254578, -0.30080196, 0.93358892, 0.06787442, -0.01051661, -0.00380164, 0.00007963, 0.00000000, 0.00000000, 0.00000000, 0.00000000
1, 0.2800, 109, 0.39315307, -0.01214295, 0.92504728, -7.86869240, -2.23379493, -0.52369660, 0.00000000, 0.00000000, 0.00000000, 178.93240356, 22.44333076, -144.48887634, -0.18254042, -0.30084068, 0.93356496, 0.06804726, -0.01138371, -0.00507897, -0.00095022, 0.00000000, 0.00000000, 0.00000000, 0.00000000
1, 0.2825, 110, 0.39121997, -0.01311745, 0.92405266, -7.79951715, -1.81593239, -0.45111927, 0.00000000, 0.00000000, 0.00000000, 178.91333008, 22.44789505, -144.48774719, -0.18252689, -0.30087823, 0.93354321, 0.06821624, -0.00937694, -0.00441143, 0.00000834, 0.00000000, 0.00000000, 0.00000000, 0.00000000
1, 0.2850, 111, 0.38975585, -0.01410369, 0.92500985, -7.51709986, -1.74527550, -0.37750447, 0.00000000, 0.00000000, 0.00000000, 178.89488220, 22.45227623, -144.48681641, -0.18251365, -0.30091324, 0.93352258, 0.06837929, -0.00784221, -0.00372197, -0.00098383, 0.00000000, 0.00000000, 0.00000000, 0.00000000
1, 0.2875, 112, 0.38828740, -0.01460477, 0.92596960, -7.44678974, -1.88545454, -0.23774107, 0.00000000, 0.00000000, 0.00000000, 178.87797546, 22.45898628, -144.48556519, -0.18252325, -0.30094734, 0.93349814, 0.06853640, -0.00626552, -0.00349267, -0.00199366, 0.00000000, 0.00000000, 0.00000000, 0.00000000
1, 0.2900, 113, 0.38877520, -0.01460190, 0.92597353, -7.51815939, -1.81678092, -0.16853912, 0.00000000, 0.00000000, 0.00000000, 178.85932922, 22.46353722, -144.48521423, -0.18251114, -0.30097800, 0.93347853, 0.06870077, -0.00667992, -0.00379581, -0.00203371, 0.00000000, 0.00000000, 0.00000000, 0.00000000
1, 0.2925, 114, 0.38827002, -0.01266411, 0.92597938, -7.37744999, -1.67723835, -0.09636742, 0.00000000, 0.00000000, 0.00000000, 178.84094238, 22.46773529, -144.48503113, -0.18249699, -0.30100685, 0.93346012, 0.06886164, -0.00610703, -0.00602939, -0.00207353, 0.00000000, 0.00000000, 0.00000000, 0.00000000
1, 0.2950, 115, 0.38629571, -0.01220503, 0.92791396, -7.23596525, -1.81641185, -0.02548391, 0.00000000, 0.00000000, 0.00000000, 178.82284546, 22.47227478, -144.48507690, -0.18248650, -0.30103344, 0.93344188, 0.06902083, -0.00405952, -0.00677976, -0.00404447, 0.00000000, 0.00000000, 0.00000000, 0.00000000
1, 0.2975, 116, 0.38633221, -0.01364226, 0.92547172, -7.16626787, -1.88752067, 0.18436401, 0.00000000, 0.00000000, 0.00000000, 178.80470276, 22.47698402, -144.48568726, -0.18247761, -0.30105537, 0.93342477, 0.06917990, -0.00402007, -0.00563448, -0.00163961, 0.00000000, 0.00000000, 0.00000000, 0.00000000
1, 0.3000, 117, 0.38483697, -0.01220998, 0.92741513, -7.16710329, -1.88873827, 0.32388896, 0.00000000, 0.00000000, 0.00000000, 178.78640747, 22.48168564, -144.48666382, -0.18246850, -0.30107445, 0.93340862, 0.06933954, -0.00244892, -0.00736106, -0.00362051, 0.00000000, 0.00000000, 0.00000000, 0.00000000
1, 0.3025, 118, 0.38287207, -0.01174359, 0.92837578, -7.23808479, -1.95942295, 0.39244682, 0.00000000, 0.00000000, 0.00000000, 178.76785278, 22.48656273, -144.48783875, -0.18246026, -0.30109233, 0.93339241, 0.06950137, -0.00040543, -0.00812573, -0.00462014, 0.00000000, 0.00000000, 0.00000000, 0.00000000
1, 0.3050, 119, 0.38339132, -0.01367043, 0.92690897, -7.16677523, -2.30803061, 0.46148163, 0.00000000, 0.00000000, 0.00000000, 178.74942017, 22.49230766, -144.48921204, -0.18245947, -0.30110794, 0.93337530, 0.06966430, -0.00083205, -0.00649546, -0.00319809, 0.00000000, 0.00000000, 0.00000000, 0.00000000
1, 0.3075, 120, 0.38290352, -0.01367330, 0.92690498, -6.88258123, -2.72451878, 0.46307963, 0.00000000, 0.00000000, 0.00000000, 178.73167419, 22.49909210, -144.49063110, -0.18246904, -0.30112177, 0.93335706, 0.06982419, -0.00023487, -0.00677770, -0.00324577, 0.00000000, 0.00000000, 0.00000000, 0.00000000
1, 0.3100, 121, 0.37900004, -0.01516270, 0.92832708, -6.59967089, -3.28279996, 0.74308336, 0.00000000, 0.00000000, 0.00000000, 178.71432495, 22.50725555, -144.49284363, -0.18249139, -0.30112791, 0.93333882, 0.06998310, 0.00380024, -0.00556669, -0.00472856, 0.00000000, 0.00000000, 0.00000000, 0.00000000
1, 0.3125, 122, 0.37560645, -0.01858624, 0.92925632, -6.67129421, -3.42438102, 0.95084411, 0.00000000, 0.00000000, 0.00000000, 178.69657898, 22.51576042, -144.49562073, -0.18251584, -0.30112988, 0.93332124, 0.07014523, 0.00733099, -0.00242786, -0.00572109, 0.00000000, 0.00000000, 0.00000000, 0.00000000
1, 0.3150, 123, 0.38000566, -0.01904194, 0.92880237, -6.67112970, -3.63402724, 1.01964056, 0.00000000, 0.00000000, 0.00000000, 178.67875671, 22.52478790, -144.49861145, -0.18254444, -0.30113006, 0.93330318, 0.07030899, 0.00307733, -0.00225803, -0.00533396, 0.00000000, 0.00000000, 0.00000000, 0.00000000
1, 0.3175, 124, 0.38583863, -0.01511524, 0.92740840, -6.81106329, -4.05228662, 0.94618058, 0.00000000, 0.00000000, 0.00000000, 178.66065979, 22.53485870, -144.50143433, -0.18258075, -0.30113170, 0.93328285, 0.07047807, -0.00259328, -0.00647500, -0.00401414, 0.00000000, 0.00000000, 0.00000000, 0.00000000
1, 0.3200, 125, 0.38726729, -0.01122531, 0.92743975, -6.88081980, -4.26111174, 0.87456942, 0.00000000, 0.00000000, 0.00000000, 178.64244080, 22.54545212, -144.50407410, -0.18262096, -0.30113474, 0.93326104, 0.07064965, -0.00385118, -0.01065679, -0.00412333, 0.00000000, 0.00000000, 0.00000000, 0.00000000
1, 0.3225, 126, 0.38480589, -0.00979146, 0.92840129, -7.09083891, -4.46890354, 0.59190571, 0.00000000, 0.00000000, 0.00000000, 178.62399292, 22.55658722, -144.50595093, -0.18266445, -0.30114406, 0.93323624, 0.07082574, -0.00121030, -0.01238620, -0.00516647, 0.00000000, 0.00000000, 0.00000000, 0.00000000
1, 0.3250, 127, 0.38238570, -0.00979118, 0.92643362, -7.23093605, -4.67751646, 0.44964948, 0.00000000, 0.00000000, 0.00000000, 178.60533142, 22.56825447, -144.50747681, -0.18271147, -0.30115646, 0.93320930, 0.07100548, 0.00139791, -0.01268529, -0.00328410, 0.00000000, 0.00000000, 0.00000000, 0.00000000
1, 0.3525, 128, 0.38734144, -0.01898431, 0.92691362, -7.50348854, -8.44177437, 0.42872876, 0.00000000, 0.00000000, 0.00000000, 178.41236877, 22.74052238, -144.50331116, -0.18360651, -0.30142707, 0.93278998, 0.07302878, -0.00078315, -0.00656879, -0.00500274, 0.00000000, 0.00000000, 0.00000000, 0.00000000
1, 0.3550, 129, 0.39078140, -0.02285286, 0.92789567, -7.22151852, -8.51169300, 0.64122427, 0.00000000, 0.00000000, 0.00000000, 178.39340210, 22.76174736, -144.50569153, -0.18373120, -0.30142939, 0.93274862, 0.07323428, -0.00388148, -0.00300151, -0.00613654, 0.00000000, 0.00000000, 0.00000000, 0.00000000
1, 0.3575, 130, 0.39174831, -0.02187680, 0.92790848, -7.15040302, -8.79062176, 0.71058118, 0.00000000, 0.00000000, 0.00000000, 178.37451172, 22.78366661, -144.50828552, -0.18386193, -0.30142957, 0.93270659, 0.07344045, -0.00449568, -0.00427714, -0.00630593, 0.00000000, 0.00000000, 0.00000000, 0.00000000
1, 0.3600, 131, 0.39515817, -0.02186037, 0.92842305, -7.22196674, -8.65226936, 0.78010511, 0.00000000, 0.00000000, 0.00000000, 178.35537720, 22.80523300, -144.51107788, -0.18398924, -0.30142879, 0.93266547, 0.07364743, -0.00755853, -0.00459714, -0.00697512, 0.00000000, 0.00000000, 0.00000000, 0.00000000
1, 0.3625, 132, 0.39412475, -0.01751423, 0.93038511, -7.50460815, -8.79321480, 0.77593076, 0.00000000, 0.00000000, 0.00000000, 178.33554077, 22.82715607, -144.51387024, -0.18411754, -0.30142897, 0.93262309, 0.07386106, -0.00617242, -0.00925811, -0.00909442, 0.00000000, 0.00000000, 0.00000000, 0.00000000
1, 0.3650, 133, 0.39511406, -0.01798635, 0.92941660, -7.64757061, -8.72615433, 0.98377526, 0.00000000, 0.00000000, 0.00000000, 178.31510925, 22.84889030, -144.51722717, -0.18424322, -0.30142561, 0.93258214, 0.07407800, -0.00681219, -0.00911005, -0.00828284, 0.00000000, 0.00000000, 0.00000000, 0.00000000
1, 0.3675, 134, 0.39416742, -0.02334353, 0.93132973, -7.57720089, -8.58640003, 0.98530197, 0.00000000, 0.00000000, 0.00000000, 178.29487610, 22.87026978, -144.52058411, -0.18436649, -0.30142212, 0.93254191, 0.07429259, -0.00552166, -0.00407411, -0.01035053, 0.00000000, 0.00000000, 0.00000000, 0.00000000
1, 0.3700, 135, 0.39714375, -0.02621904, 0.92890382, -7.57817078, -8.23800468, 0.98691213, 0.00000000, 0.00000000, 0.00000000, 178.27462769, 22.89078331, -144.52392578, -0.18448268, -0.30141917, 0.93250299, 0.07450491, -0.00816810, -0.00151983, -0.00807345, 0.00000000, 0.00000000, 0.00000000, 0.00000000
1, 0.3725, 136, 0.39960006, -0.02179437, 0.92310178, -7.43846226, -7.89003325, 1.12981248, 0.00000000, 0.00000000, 0.00000000, 178.25457764, 22.91041565, -144.52764893, -0.18459243, -0.30141330, 0.93246645, 0.07471266, -0.01030877, -0.00626251, -0.00241446, 0.00000000, 0.00000000, 0.00000000, 0.00000000
1, 0.3750, 137, 0.40060893, -0.02127423, 0.91921622, -7.43887997, -7.89064217, 1.19957495, 0.00000000, 0.00000000, 0.00000000, 178.23446655, 22.93004227, -144.53157043, -0.18470207, -0.30140597, 0.93243045, 0.07492071, -0.01100216, -0.00710187, 0.00132793, 0.00000000, 0.00000000, 0.00000000, 0.00000000
1, 0.3775, 138, 0.39863855, -0.02178914, 0.92163289, -7.22815990, -7.33201933, 1.20479894, 0.00000000, 0.00000000, 0.00000000, 178.21487427, 22.94826698, -144.53544617, -0.18480171, -0.30139861, 0.93239701, 0.07512082, -0.00873885, -0.00689776, -0.00122249, 0.00000000, 0.00000000, 0.00000000, 0.00000000
1, 0.3800, 139, 0.40061474, -0.02615512, 0.92308766, -7.30027533, -6.84466219, 1.20617080, 0.00000000, 0.00000000, 0.00000000, 178.19511414, 22.96527672, -144.53929138, -0.18489097, -0.30139232, 0.93236536, 0.07531919, -0.01044169, -0.00284546, -0.00280297, 0.00000000, 0.00000000, 0.00000000, 0.00000000
1, 0.3825, 140, 0.40503964, -0.03001063, 0.92310363, -7.58469248, -6.49846268, 1.27401304, 0.00000000, 0.00000000, 0.00000000, 178.17459106, 22.98141479, -144.54331970, -0.18497120, -0.30138633, 0.93233508, 0.07552134, -0.01460719, 0.00068382, -0.00293911, 0.00000000, 0.00000000, 0.00000000, 0.00000000
1, 0.3850, 141, 0.40398377, -0.02421630, 0.92604691, -8.01232624, -6.29545736, 1.68825877, 0.00000000, 0.00000000, 0.00000000, 178.15255737, 22.99700928, -144.54843140, -0.18504377, -0.30137393, 0.93230748, 0.07573251, -0.01330084, -0.00546094, -0.00600010, 0.00000000, 0.00000000, 0.00000000, 0.00000000
1, 0.3875, 142, 0.40297097, -0.02376245, 0.92945039, -8.57899666, -6.22956133, 1.75128269, 0.00000000, 0.00000000, 0.00000000, 178.13069153, 23.01414299, -144.55297852, -0.18512894, -0.30136561, 0.93227577, 0.07594729, -0.01201278, -0.00626219, -0.00953186, 0.00000000, 0.00000000, 0.00000000, 0.00000000
1, 0.3900, 143, 0.40105411, -0.02814407, 0.92989957, -8.86447334, -5.95486593, 2.02809048, 0.00000000, 0.00000000, 0.00000000, 178.10617065, 23.02885628, -144.55900574, -0.18518841, -0.30135030, 0.93225038, 0.07617493, -0.00985956, -0.00227097, -0.01009429, 0.00000000, 0.00000000, 0.00000000, 0.00000000
1, 0.3925, 144, 0.40158099, -0.03250769, 0.92988151, -9.00868988, -5.88963318, 2.44522214, 0.00000000, 0.00000000, 0.00000000, 178.08084106, 23.04336929, -144.56617737, -0.18524490, -0.30132717, 0.93222767, 0.07640675, -0.01015336, 0.00168936, -0.01018876, 0.00000000, 0.00000000, 0.00000000, 0.00000000
1, 0.3950, 145, 0.40216279, -0.03878275, 0.92595780, -8.94288731, -5.61660814, 3.14501762, 0.00000000, 0.00000000, 0.00000000, 178.05493164, 23.05713654, -144.57522583, -0.18529509, -0.30128998, 0.93221062, 0.07663826, -0.01051402, 0.00755186, -0.00637317, 0.00000000, 0.00000000, 0.00000000, 0.00000000
1, 0.3975, 146, 0.40033126, -0.04212096, 0.91667217, -8.59438515, -4.92270422, 3.71075034, 0.00000000, 0.00000000, 0.00000000, 178.02932739, 23.06912041, -144.58575439, -0.18533252, -0.30124104, 0.93220073, 0.07686041, -0.00849006, 0.01048183, 0.00281644, 0.00000000, 0.00000000, 0.00000000, 0.00000000
1, 0.4000, 147, 0.40240753, -0.04445493, 0.90596211, -8.45660019, -4.78742361, 4.27125978, 0.00000000, 0.00000000, 0.00000000, 178.00344849, 23.08071709, -144.59780884, -0.18536714, -0.30118033, 0.93219525, 0.07708112, -0.01038015, 0.01240348, 0.01343298, 0.00000000, 0.00000000, 0.00000000, 0.00000000
1, 0.4025, 148, 0.40875974, -0.04245505, 0.90310133, -8.59987640, -5.21055317, 4.75589943, 0.00000000, 0.00000000, 0.00000000, 177.97668457, 23.09331322, -144.61122131, -0.18540859, -0.30110964, 0.93219095, 0.07730949, -0.01653010, 0.00997727, 0.01619250, 0.00000000, 0.00000000, 0.00000000, 0.00000000
1, 0.4050, 149, 0.41213384, -0.04002377, 0.90508908, -8.52959633, -5.49069881, 4.96478081, 0.00000000, 0.00000000, 0.00000000, 177.94987488, 23.10659027, -144.62522888, -0.18545584, -0.30103388, 0.93218690, 0.07753910, -0.01969105, 0.00711888, 0.01409858, 0.00000000, 0.00000000, 0.00000000, 0.00000000
1, 0.4075, 150, 0.41455874, -0.04002039, 0.90656978, -8.45967388, -5.49151993, 5.10518885, 0.00000000, 0.00000000, 0.00000000, 177.92308044, 23.11984825, -144.63964844, -0.18550332, -0.30095500, 0.93218392, 0.07776787, -0.02190313, 0.00668877, 0.01251156, 0.00000000, 0.00000000, 0.00000000, 0.00000000
1, 0.4100, 151, 0.41355312, -0.03614115, 0.90609443, -8.38849926, -5.49051428, 5.03630877, 0.00000000, 0.00000000, 0.00000000, 177.89649963, 23.13311005, -144.65386963, -0.18555136, -0.30087718, 0.93218052, 0.07799490, -0.02068463, 0.00238683, 0.01288063, 0.00000000, 0.00000000, 0.00000000, 0.00000000
1, 0.4125, 152, 0.41309205, -0.03807737, 0.90510672, -8.17825794, -5.21243477, 5.24953222, 0.00000000, 0.00000000, 0.00000000, 177.87025452, 23.14564514, -144.66865540, -0.18559475, -0.30079466, 0.93217999, 0.07821669, -0.02002231, 0.00390513, 0.01376689, 0.00000000, 0.00000000, 0.00000000, 0.00000000
1, 0.4150, 153, 0.41307291, -0.03858080, 0.90753919, -8.10785866, -4.93271255, 5.18194008, 0.00000000, 0.00000000, 0.00000000, 177.84425354, 23.15748596, -144.68324280, -0.18563300, -0.30071369, 0.93218005, 0.07843492, -0.01981324, 0.00399463, 0.01123756, 0.00000000, 0.00000000, 0.00000000, 0.00000000
1, 0.4175, 154, 0.41308630, -0.03954748, 0.90704733, -7.96770191, -4.44416571, 5.18595982, 0.00000000, 0.00000000, 0.00000000, 177.81861877, 23.16809845, -144.69778442, -0.18566222, -0.30063289, 0.93218243, 0.07864712, -0.01965633, 0.00455289, 0.01164109, 0.00000000, 0.00000000, 0.00000000, 0.00000000
1, 0.4200, 155, 0.41458151, -0.04097975, 0.90510392, -7.61572027, -4.09500456, 5.33150768, 0.00000000, 0.00000000, 0.00000000, 177.79370117, 23.17781639, -144.71269226, -0.18568641, -0.30054829, 0.93218774, 0.07885046, -0.02099562, 0.00558837, 0.01350236, 0.00000000, 0.00000000, 0.00000000, 0.00000000
1, 0.4225, 156, 0.41411647, -0.04194200, 0.90363413, -7.61778021, -3.95808077, 5.61120176, 0.00000000, 0.00000000, 0.00000000, 177.76849365, 23.18716240, -144.72836304, -0.18570730, -0.30045822, 0.93219537, 0.07905407, -0.02038065, 0.00614891, 0.01489240, 0.00000000, 0.00000000, 0.00000000, 0.00000000
1, 0.4250, 157, 0.41757771, -0.04237420, 0.89927644, -7.54682922, -4.02736378, 5.61176205, 0.00000000, 0.00000000, 0.00000000, 177.74345398, 23.19667244, -144.74403381, -0.18573005, -0.30036771, 0.93220282, 0.07925668, -0.02368931, 0.00618222, 0.01916904, 0.00000000, 0.00000000, 0.00000000, 0.00000000
1, 0.4275, 158, 0.42197728, -0.04234108, 0.89833802, -7.26444149, -4.09667397, 5.75449562, 0.00000000, 0.00000000, 0.00000000, 177.71894836, 23.20633507, -144.76011658, -0.18575580, -0.30027303, 0.93221134, 0.07945459, -0.02793387, 0.00575907, 0.02002544, 0.00000000, 0.00000000, 0.00000000, 0.00000000
1, 0.4300, 159, 0.42347828, -0.04230324, 0.89445394, -7.19451952, -4.09749460, 5.89490271, 0.00000000, 0.00000000, 0.00000000, 177.69448853, 23.21598244, -144.77659607, -0.18578178, -0.30017519, 0.93222088, 0.07965164, -0.02928010, 0.00533157, 0.02382762, 0.00000000, 0.00000000, 0.00000000, 0.00000000
1, 0.4325, 160, 0.42589921, -0.04132588, 0.89545250, -6.98266554, -4.09691381, 5.96731329, 0.00000000, 0.00000000, 0.00000000, 177.67044067, 23.22561455, -144.79325867, -0.18580899, -0.30007499, 0.93223107, 0.07984466, -0.03154656, 0.00397178, 0.02274722, 0.00000000, 0.00000000, 0.00000000, 0.00000000
1, 0.4350, 161, 0.42832881, -0.04131885, 0.89644623, -7.05284071, -4.30634785, 5.96546459, 0.00000000, 0.00000000, 0.00000000, 177.64624023, 23.23575783, -144.80995178, -0.18584003, -0.29997477, 0.93224049, 0.08004048, -0.03381348, 0.00357952, 0.02166772, 0.00000000, 0.00000000, 0.00000000, 0.00000000
1, 0.4375, 162, 0.42978314, -0.04082873, 0.89694750, -6.98105335, -4.37441206, 5.82649946, 0.00000000, 0.00000000, 0.00000000, 177.62144470, 23.25541306, -144.82600403, -0.18594666, -0.29987723, 0.93223113, 0.08026616, -0.03495261, 0.00269784, 0.02101487, 0.00000000, 0.00000000, 0.00000000, 0.00000000
1, 0.4400, 163, 0.43072224, -0.03938576, 0.89939761, -6.83976221, -4.44390678, 5.89770555, 0.00000000, 0.00000000, 0.00000000, 177.59780884, 23.26589394, -144.84254456, -0.18598196, -0.29977724, 0.93223971, 0.08045827, -0.03572366, 0.00087929, 0.01847673, 0.00000000, 0.00000000, 0.00000000, 0.00000000
1, 0.4425, 164, 0.43215311, -0.03891392, 0.90233386, -6.76984072, -4.44472790, 6.03811312, 0.00000000, 0.00000000, 0.00000000, 177.57420349, 23.27636337, -144.85948181, -0.18601750, -0.29967409, 0.93224931, 0.08064952, -0.03698666, 0.00003225, 0.01545245, 0.00000000, 0.00000000, 0.00000000, 0.00000000
1, 0.4450, 165, 0.43215311, -0.03891392, 0.90233386, -6.76984072, -4.44472790, 6.03811312, 0.00000000, 0.00000000, 0.00000000, 177.55058289, 23.28682518, -144.87640381, -0.18605301, -0.29957092, 0.93225873, 0.08084077, -0.03681892, -0.00034296, 0.01536429, 0.00000000, 0.00000000, 0.00000000, 0.00000000
1, 0.4475, 166, 0.43509796, -0.03985973, 0.90137863, -6.69972515, -4.51522779, 6.17819834, 0.00000000, 0.00000000, 0.00000000, 177.52697754, 23.29743958, -144.89372253, -0.18609017, -0.29946449, 0.93226898, 0.08103162, -0.03959364, 0.00022800, 0.01622999, 0.00000000, 0.00000000, 0.00000000, 0.00000000
1, 0.4500, 167, 0.43509796, -0.03985973, 0.90137863, -6.69972515, -4.51522779, 6.17819834, 0.00000000, 0.00000000, 0.00000000, 177.50337219, 23.30804825, -144.91107178, -0.18612732, -0.29935807, 0.93227917, 0.08122247, -0.03942359, -0.00014686, 0.01614046, 0.00000000, 0.00000000, 0.00000000, 0.00000000
1, 0.4525, 168, 0.43219212, -0.03692941, 0.89649981, -7.05373621, -4.58749914, 6.24322605, 0.00000000, 0.00000000, 0.00000000, 177.47879028, 23.31882286, -144.92860413, -0.18616349, -0.29925156, 0.93228871, 0.08142124, -0.03634503, -0.00346737, 0.02092773, 0.00000000, 0.00000000, 0.00000000, 0.00000000
1, 0.4550, 169, 0.43219212, -0.03692941, 0.89649981, -7.05373621, -4.58749914, 6.24322605, 0.00000000, 0.00000000, 0.00000000, 177.45422363, 23.32958984, -144.94613647, -0.18619967, -0.29914507, 0.93229830, 0.08162002, -0.03617248, -0.00385757, 0.02083588, 0.00000000, 0.00000000, 0.00000000, 0.00000000
1, 0.4575, 170, 0.44051400, -0.04174327, 0.89800334, -7.19374323, -4.37621069, 5.89361477, 0.00000000, 0.00000000, 0.00000000, 177.42968750, 23.33986282, -144.96269226, -0.18623123, -0.29904667, 0.93230617, 0.08181883, -0.04432974, 0.00056652, 0.01924384, 0.00000000, 0.00000000, 0.00000000, 0.00000000
1, 0.4600, 171, 0.44051400, -0.04174327, 0.89800334, -7.19374323, -4.37621069, 5.89361477, 0.00000000, 0.00000000, 0.00000000, 177.40512085, 23.35012817, -144.97926331, -0.18626276, -0.29894820, 0.93231392, 0.08201765, -0.04416522, 0.00017671, 0.01915514, 0.00000000, 0.00000000, 0.00000000, 0.00000000
1, 0.4625, 172, 0.44863421, -0.03987443, 0.91415066, -7.12300062, -3.46633315, 5.48010921, 0.00000000, 0.00000000, 0.00000000, 177.38125610, 23.35816765, -144.99458313, -0.18627700, -0.29885948, 0.93232280, 0.08220740, -0.05215670, -0.00207196, 0.00293499, 0.00000000, 0.00000000, 0.00000000, 0.00000000
1, 0.4650, 173, 0.45057964, -0.04133306, 0.91610706, -7.12229919, -3.11550236, 5.20266914, 0.00000000, 0.00000000, 0.00000000, 177.35766602, 23.36534500, -145.00914001, -0.18628462, -0.29877701, 0.93233132, 0.08239373, -0.05398704, -0.00098831, 0.00091159, 0.00000000, 0.00000000, 0.00000000, 0.00000000
1, 0.4675, 174, 0.44966152, -0.04617950, 0.91461378, -7.05228806, -2.69642234, 5.13572216, 0.00000000, 0.00000000, 0.00000000, 177.33436584, 23.37149048, -145.02345276, -0.18628426, -0.29869637, 0.93234116, 0.08257562, -0.05297048, 0.00348708, 0.00234520, 0.00000000, 0.00000000, 0.00000000, 0.00000000
1, 0.4700, 175, 0.45018187, -0.04663987, 0.91169339, -6.76822948, -2.76329732, 4.99940491, 0.00000000, 0.00000000, 0.00000000, 177.31190491, 23.37780380, -145.03739929, -0.18628736, -0.29861721, 0.93235028, 0.08275162, -0.05338968, 0.00359011, 0.00520498, 0.00000000, 0.00000000, 0.00000000, 0.00000000
1, 0.4725, 176, 0.44775623, -0.04762089, 0.91118181, -6.62626600, -2.62192845, 4.86228943, 0.00000000, 0.00000000, 0.00000000, 177.28996277, 23.38377953, -145.05096436, -0.18628874, -0.29854050, 0.93235934, 0.08292324, -0.05086832, 0.00422185, 0.00565863, 0.00000000, 0.00000000, 0.00000000, 0.00000000
1, 0.4750, 177, 0.44726446, -0.04664977, 0.91069573, -6.55634451, -2.62274933, 5.00269651, 0.00000000, 0.00000000, 0.00000000, 177.26803589, 23.38973427, -145.06491089, -0.18629034, -0.29846066, 0.93236941, 0.08309402, -0.05028109, 0.00290181, 0.00608695, 0.00000000, 0.00000000, 0.00000000, 0.00000000
1, 0.4775, 178, 0.44337979, -0.04812456, 0.91016984, -6.62690783, -2.69282484, 5.00149202, 0.00000000, 0.00000000, 0.00000000, 177.24592590, 23.39586067, -145.07887268, -0.18629289, -0.29838094, 0.93237889, 0.08326667, -0.04629833, 0.00402489, 0.00655341, 0.00000000, 0.00000000, 0.00000000, 0.00000000
1, 0.4800, 179, 0.44145101, -0.04958422, 0.90917277, -6.62790775, -2.48439622, 5.07222080, 0.00000000, 0.00000000, 0.00000000, 177.22373962, 23.40145493, -145.09298706, -0.18629107, -0.29830021, 0.93238980, 0.08343828, -0.04427994, 0.00513157, 0.00749463, 0.00000000, 0.00000000, 0.00000000, 0.00000000
1, 0.4825, 180, 0.44092703, -0.04766104, 0.91112655, -6.62832546, -2.48500514, 5.14198351, 0.00000000, 0.00000000, 0.00000000, 177.20149231, 23.40703392, -145.10731506, -0.18628912, -0.29821801, 0.93240112, 0.08361018, -0.04366661, 0.00285413, 0.00548488, 0.00000000, 0.00000000, 0.00000000, 0.00000000
1, 0.4850, 181, 0.44043744, -0.05010801, 0.91354531, -6.48719931, -2.34485340, 5.14439297, 0.00000000, 0.00000000, 0.00000000, 177.17958069, 23.41225815, -145.12162781, -0.18628523, -0.29813546, 0.93241322, 0.08377830, -0.04309336, 0.00495250, 0.00301266, 0.00000000, 0.00000000, 0.00000000, 0.00000000
1, 0.4875, 182, 0.44141343, -0.04961345, 0.91306865, -6.13296509, -2.20229435, 5.00992441, 0.00000000, 0.00000000, 0.00000000, 177.15734863, 23.42927551, -145.13529968, -0.18637633, -0.29805475, 0.93240267, 0.08397975, -0.04379679, 0.00410828, 0.00335389, 0.00000000, 0.00000000, 0.00000000, 0.00000000
1, 0.4900, 183, 0.43798906, -0.05012966, 0.91449952, -5.85035324, -2.20131636, 5.08321714, 0.00000000, 0.00000000, 0.00000000, 177.13711548, 23.43413925, -145.14942932, -0.18637376, -0.29797110, 0.93241602, 0.08413374, -0.04029454, 0.00430236, 0.00187314, 0.00000000, 0.00000000, 0.00000000, 0.00000000
1, 0.4925, 184, 0.43651229, -0.04917159, 0.91497958, -5.70741987, -2.40834284, 4.94449186, 0.00000000, 0.00000000, 0.00000000, 177.11737061, 23.43953514, -145.16320801, -0.18637657, -0.29788932, 0.93242788, 0.08428560, -0.03873137, 0.00303029, 0.00133985, 0.00000000, 0.00000000, 0.00000000, 0.00000000
1, 0.4950, 185, 0.43405488, -0.04871172, 0.91642320, -5.42400265, -2.54611421, 4.94737816, 0.00000000, 0.00000000, 0.00000000, 177.09831238, 23.44526863, -145.17701721, -0.18638401, -0.29780605, 0.93243974, 0.08443260, -0.03618211, 0.00226767, -0.00015885, 0.00000000, 0.00000000, 0.00000000, 0.00000000
1, 0.4975, 186, 0.43160650, -0.04873337, 0.91737747, -5.14097261, -2.54452753, 4.95090818, 0.00000000, 0.00000000, 0.00000000, 177.07995605, 23.45099640, -145.19085693, -0.18639323, -0.29772153, 0.93245196, 0.08457384, -0.03364214, 0.00199783, -0.00116783, 0.00000000, 0.00000000, 0.00000000, 0.00000000
1, 0.5000, 187, 0.42915949, -0.04679974, 0.91639358, -4.85675001, -2.82104874, 4.88338757, 0.00000000, 0.00000000, 0.00000000, 177.06236267, 23.45741081, -145.20452881, -0.18641005, -0.29763675, 0.93246329, 0.08471082, -0.03109235, -0.00021476, -0.00024283, 0.00000000, 0.00000000, 0.00000000, 0.00000000
1, 0.5025, 188, 0.42967841, -0.04921540, 0.91541135, -4.57188416, -3.02667284, 4.67666435, 0.00000000, 0.00000000, 0.00000000, 177.04570007, 23.46436501, -145.21768188, -0.18643330, -0.29755461, 0.93247288, 0.08484250, -0.03149993, 0.00193691, 0.00067735, 0.00000000, 0.00000000, 0.00000000, 0.00000000
1, 0.5050, 189, 0.42962340, -0.04095296, 0.91350496, -4.21565008, -3.30097055, 4.40073872, 0.00000000, 0.00000000, 0.00000000, 177.03019714, 23.47204208, -145.23013306, -0.18646494, -0.29747611, 0.93248022, 0.08496759, -0.03132200, -0.00657051, 0.00251776, 0.00000000, 0.00000000, 0.00000000, 0.00000000
1, 0.5075, 190, 0.42523757, -0.04146394, 0.91346699, -3.71857214, -3.78533912, 4.33490038, 0.00000000, 0.00000000, 0.00000000, 177.01599121, 23.48092651, -145.24244690, -0.18650977, -0.29739606, 0.93248606, 0.08508544, -0.02679393, -0.00628348, 0.00248212, 0.00000000, 0.00000000, 0.00000000, 0.00000000
1, 0.5100, 191, 0.42378142, -0.04439816, 0.91538841, -3.29157996, -4.05924034, 4.05985785, 0.00000000, 0.00000000, 0.00000000, 177.00312805, 23.49053574, -145.25408936, -0.18656346, -0.29731932, 0.93248975, 0.08519527, -0.02518398, -0.00355143, 0.00048333, 0.00000000, 0.00000000, 0.00000000, 0.00000000
1, 0.5125, 192, 0.42328495, -0.04343069, 0.91538936, -3.00593901, -4.54358101, 3.85184598, 0.00000000, 0.00000000, 0.00000000, 176.99118042, 23.50137329, -145.26521301, -0.18662925, -0.29724479, 0.93249065, 0.08530157, -0.02451406, -0.00470600, 0.00039697, 0.00000000, 0.00000000, 0.00000000, 0.00000000
1, 0.5150, 193, 0.41837621, -0.04055203, 0.91585159, -3.07514405, -5.10141087, 3.84838700, 0.00000000, 0.00000000, 0.00000000, 176.97901917, 23.51360130, -145.27642822, -0.18670593, -0.29716951, 0.93248910, 0.08541288, -0.01940957, -0.00777450, -0.00016057, 0.00000000, 0.00000000, 0.00000000, 0.00000000
1, 0.5175, 194, 0.41931963, -0.03959423, 0.91829926, -3.07275605, -5.65762520, 3.70628619, 0.00000000, 0.00000000, 0.00000000, 176.96697998, 23.52723885, -145.28732300, -0.18679421, -0.29709607, 0.93248433, 0.08552717, -0.02013478, -0.00891960, -0.00271326, 0.00000000, 0.00000000, 0.00000000, 0.00000000
1, 0.5200, 195, 0.41831583, -0.03962189, 0.92121333, -2.92882371, -6.07308006, 3.49683142, 0.00000000, 0.00000000, 0.00000000, 176.95550537, 23.54193306, -145.29772949, -0.18689224, -0.29702553, 0.93247676, 0.08564036, -0.01889580, -0.00906986, -0.00573939, 0.00000000, 0.00000000, 0.00000000, 0.00000000
1, 0.5225, 196, 0.41930047, -0.04009767, 0.92073172, -2.57345486, -6.48856258, 3.42954969, 0.00000000, 0.00000000, 0.00000000, 176.94496155, 23.55768204, -145.30801392, -0.18700115, -0.29695413, 0.93246770, 0.08574875, -0.01962849, -0.00875669, -0.00537628, 0.00000000, 0.00000000, 0.00000000, 0.00000000
1, 0.5250, 197, 0.41781136, -0.03670646, 0.92025000, -2.07573533, -6.90203428, 3.22450781, 0.00000000, 0.00000000, 0.00000000, 176.93586731, 23.57448196, -145.31781006, -0.18712209, -0.29688409, 0.93245655, 0.08584885, -0.01787061, -0.01228704, -0.00501931, 0.00000000, 0.00000000, 0.00000000, 0.00000000
1, 0.5275, 198, 0.41734746, -0.03620224, 0.91732663, -1.71975458, -7.38658667, 3.08714151, 0.00000000, 0.00000000, 0.00000000, 176.92778015, 23.59250641, -145.32728577, -0.18725543, -0.29681450, 0.93244320, 0.08594428, -0.01711837, -0.01291382, -0.00222862, 0.00000000, 0.00000000, 0.00000000, 0.00000000
1, 0.5300, 199, 0.41737890, -0.03813194, 0.91585588, -1.57704592, -7.66390133, 3.01785588, 0.00000000, 0.00000000, 0.00000000, 176.92008972, 23.61123466, -145.33662415, -0.18739545, -0.29674515, 0.93242836, 0.08603831, -0.01685032, -0.01109981, -0.00089514, 0.00000000, 0.00000000, 0.00000000, 0.00000000
1, 0.5325, 200, 0.41737059, -0.03667279, 0.91537625, -1.64522123, -8.29019165, 2.87454987, 0.00000000, 0.00000000, 0.00000000, 176.91233826, 23.63154030, -145.34568787, -0.18754804, -0.29667786, 0.93241000, 0.08613721, -0.01651731, -0.01267490, -0.00056410, 0.00000000, 0.00000000, 0.00000000, 0.00000000
1, 0.5350, 201, 0.41635883, -0.03475248, 0.91732609, -1.99662054, -8.84839058, 2.72803593, 0.00000000, 0.00000000, 0.00000000, 176.90385437, 23.65326309, -145.35441589, -0.18770999, -0.29661390, 0.93238771, 0.08624625, -0.01515824, -0.01472262, -0.00267303, 0.00000000, 0.00000000, 0.00000000, 0.00000000
1, 0.5375, 202, 0.41536692, -0.03135109, 0.91587436, -2.13655305, -9.26665020, 2.65457582, 0.00000000, 0.00000000, 0.00000000, 176.90077209, 23.67960167, -145.36026001, -0.18792146, -0.29656309, 0.93235373, 0.08632749, -0.01374531, -0.01816328, -0.00140822, 0.00000000, 0.00000000, 0.00000000, 0.00000000
1, 0.5400, 203, 0.41925052, -0.03134276, 0.91785383, -2.13555312, -9.47507858, 2.58384752, 0.00000000, 0.00000000, 0.00000000, 176.89204407, 23.70290375, -145.36871338, -0.18809551, -0.29650143, 0.93232763, 0.08644283, -0.01725644, -0.01830214, -0.00355828, 0.00000000, 0.00000000, 0.00000000, 0.00000000
1, 0.5425, 204, 0.41923931, -0.02744317, 0.91543847, -2.20531082, -9.68390369, 2.51223636, 0.00000000, 0.00000000, 0.00000000, 176.88319397, 23.72673988, -145.37701416, -0.18827346, -0.29644108, 0.93229985, 0.08656063, -0.01686442, -0.02233378, -0.00131774, 0.00000000, 0.00000000, 0.00000000, 0.00000000
1, 0.5450, 205, 0.42024237, -0.02839315, 0.91349357, -2.27423239, -9.89151096, 2.30109978, 0.00000000, 0.00000000, 0.00000000, 176.87437439, 23.75112152, -145.38475037, -0.18845560, -0.29638493, 0.93226981, 0.08668031, -0.01747790, -0.02151494, 0.00044858, 0.00000000, 0.00000000, 0.00000000, 0.00000000
1, 0.5475, 206, 0.42078075, -0.02981655, 0.90959430, -2.41377711, -10.44912720, 2.22699642, 0.00000000, 0.00000000, 0.00000000, 176.86528015, 23.77689552, -145.39239502, -0.18864830, -0.29632980, 0.93223667, 0.08680613, -0.01760456, -0.02022694, 0.00415880, 0.00000000, 0.00000000, 0.00000000, 0.00000000
1, 0.5500, 207, 0.41984206, -0.03077069, 0.90665960, -2.76575851, -10.79829025, 2.08144808, 0.00000000, 0.00000000, 0.00000000, 176.85542297, 23.80356216, -145.39967346, -0.18884608, -0.29627842, 0.93220043, 0.08694075, -0.01624000, -0.01941969, 0.00689727, 0.00000000, 0.00000000, 0.00000000, 0.00000000
1, 0.5525, 208, 0.41938138, -0.03221809, 0.90518737, -3.04842949, -11.07920170, 2.14639187, 0.00000000, 0.00000000, 0.00000000, 176.84475708, 23.83092499, -145.40719604, -0.18904763, -0.29622629, 0.93216288, 0.08708321, -0.01534242, -0.01813160, 0.00816757, 0.00000000, 0.00000000, 0.00000000, 0.00000000
1, 0.5550, 209, 0.42039207, -0.03560486, 0.90469116, -3.40085816, -11.56893730, 2.13972473, 0.00000000, 0.00000000, 0.00000000, 176.83319092, 23.85951042, -145.41477966, -0.18925686, -0.29617482, 0.93212253, 0.08723596, -0.01589674, -0.01491812, 0.00845242, 0.00000000, 0.00000000, 0.00000000, 0.00000000
1, 0.5575, 210, 0.42285743, -0.03801269, 0.90421164, -3.61219049, -12.05849075, 2.20458579, 0.00000000, 0.00000000, 0.00000000, 176.82098389, 23.88930130, -145.42262268, -0.18947451, -0.29612193, 0.93208003, 0.08739643, -0.01788670, -0.01269313, 0.00871086, 0.00000000, 0.00000000, 0.00000000, 0.00000000
1, 0.5600, 211, 0.42287663, -0.03750926, 0.90177917, -3.68175364, -12.33699608, 2.13265204, 0.00000000, 0.00000000, 0.00000000, 176.80865479, 23.91980362, -145.43031311, -0.18969753, -0.29607028, 0.93203580, 0.08755981, -0.01741919, -0.01338090, 0.01091719, 0.00000000, 0.00000000, 0.00000000, 0.00000000
1, 0.5625, 212, 0.42636386, -0.04085246, 0.89740688, -3.54049277, -12.54645729, 2.27297592, 0.00000000, 0.00000000, 0.00000000, 176.79650879, 23.95079994, -145.43843079, -0.18992542, -0.29601473, 0.93199170, 0.08772224, -0.02041194, -0.01021889, 0.01505942, 0.00000000, 0.00000000, 0.00000000, 0.00000000
1, 0.5650, 213, 0.42883939, -0.04227535, 0.89498430, -3.68064928, -13.03500366, 2.26895642, 0.00000000, 0.00000000, 0.00000000, 176.78399658, 23.98302078, -145.44664001, -0.19016233, -0.29595888, 0.93194520, 0.08789065, -0.02237362, -0.00898275, 0.01724273, 0.00000000, 0.00000000, 0.00000000, 0.00000000
1, 0.5675, 214, 0.43232155, -0.04611102, 0.89158350, -3.75127220, -13.38501358, 2.40598893, 0.00000000, 0.00000000, 0.00000000, 176.77110291, 24.01609039, -145.45526123, -0.19040564, -0.29589987, 0.93189800, 0.08806333, -0.02532849, -0.00533904, 0.02039755, 0.00000000, 0.00000000, 0.00000000, 0.00000000
1, 0.5700, 215, 0.43525413, -0.04462370, 0.88966662, -3.82289553, -13.52659416, 2.61374927, 0.00000000, 0.00000000, 0.00000000, 176.75778198, 24.04948616, -145.46449280, -0.19065094, -0.29583663, 0.93185133, 0.08823923, -0.02772874, -0.00702492, 0.02206546, 0.00000000, 0.00000000, 0.00000000, 0.00000000
1, 0.5725, 216, 0.43723971, -0.04898237, 0.89014739, -4.03442144, -13.94646835, 2.67893219, 0.00000000, 0.00000000, 0.00000000, 176.74383545, 24.08391571, -145.47398376, -0.19090325, -0.29577208, 0.93180275, 0.08842240, -0.02916566, -0.00287438, 0.02132744, 0.00000000, 0.00000000, 0.00000000, 0.00000000
1, 0.5750, 217, 0.43678230, -0.05238140, 0.89012629, -4.03545094, -13.87800598, 2.81877875, 0.00000000, 0.00000000, 0.00000000, 176.72970581, 24.11816025, -145.48384094, -0.19115390, -0.29570481, 0.93175530, 0.08860572, -0.02816270, 0.00031394, 0.02109224, 0.00000000, 0.00000000, 0.00000000, 0.00000000
1, 0.5775, 218, 0.44029418, -0.06059087, 0.88767743, -3.68147016, -13.94570255, 2.82286954, 0.00000000, 0.00000000, 0.00000000, 176.71644592, 24.15255928, -145.49375916, -0.19140817, -0.29563582, 0.93170828, 0.08878230, -0.03112663, 0.00832667, 0.02328390, 0.00000000, 0.00000000, 0.00000000, 0.00000000
1, 0.5800, 219, 0.44128534, -0.06496989, 0.89009827, -3.32910132, -13.73589897, 2.96777368, 0.00000000, 0.00000000, 0.00000000, 176.70391846, 24.18641281, -145.50402832, -0.19166012, -0.29556274, 0.93166351, 0.08895095, -0.03157876, 0.01252036, 0.02060998, 0.00000000, 0.00000000, 0.00000000, 0.00000000
1, 0.5825, 220, 0.44421321, -0.06348623, 0.88866830, -3.19009399, -13.73875904, 3.38811374, 0.00000000, 0.00000000, 0.00000000, 176.69126892, 24.22021675, -145.51548767, -0.19191220, -0.29548052, 0.93162161, 0.08911855, -0.03396851, 0.01084933, 0.02178687, 0.00000000, 0.00000000, 0.00000000, 0.00000000
1, 0.5850, 221, 0.44762018, -0.06102936, 0.88724715, -3.19195914, -13.67151546, 3.66748595, 0.00000000, 0.00000000, 0.00000000, 176.67826843, 24.25381088, -145.52767944, -0.19216236, -0.29539275, 0.93158180, 0.08928691, -0.03684083, 0.00819998, 0.02295578, 0.00000000, 0.00000000, 0.00000000, 0.00000000
1, 0.5875, 222, 0.45156452, -0.06146235, 0.88338047, -2.98126912, -13.25285912, 3.74182773, 0.00000000, 0.00000000, 0.00000000, 176.66348267, 24.29614449, -145.54028320, -0.19247957, -0.29530212, 0.93152547, 0.08949078, -0.04011163, 0.00841572, 0.02650553, 0.00000000, 0.00000000, 0.00000000, 0.00000000
1, 0.5900, 223, 0.45498848, -0.06143497, 0.88243407, -2.76996708, -12.90327358, 3.74608588, 0.00000000, 0.00000000, 0.00000000, 176.65148926, 24.32779884, -145.55261230, -0.19271663, -0.29521242, 0.93149000, 0.08964593, -0.04303212, 0.00821108, 0.02721376, 0.00000000, 0.00000000, 0.00000000, 0.00000000
1, 0.5925, 224, 0.45498848, -0.06143497, 0.88243407, -2.70156741, -12.20669460, 3.81995130, 0.00000000, 0.00000000, 0.00000000, 176.63960266, 24.35770416, -145.56503296, -0.19293982, -0.29512227, 0.93145800, 0.08979551, -0.04255656, 0.00803515, 0.02698792, 0.00000000, 0.00000000, 0.00000000, 0.00000000
1, 0.5950, 225, 0.45547524, -0.06289855, 0.88389164, -2.63155675, -11.78761387, 3.75300360, 0.00000000, 0.00000000, 0.00000000, 176.62800598, 24.38657188, -145.57720947, -0.19315504, -0.29503396, 0.93142730, 0.08994067, -0.04258439, 0.00932676, 0.02531201, 0.00000000, 0.00000000, 0.00000000, 0.00000000
1, 0.5975, 226, 0.45647326, -0.06434101, 0.88291824, -2.34969091, -11.36795235, 3.75846624, 0.00000000, 0.00000000, 0.00000000, 176.61711121, 24.41438675, -145.58935547, -0.19336353, -0.29494518, 0.93139899, 0.09007742, -0.04314033, 0.01060826, 0.02607501, 0.00000000, 0.00000000, 0.00000000, 0.00000000
1, 0.6000, 227, 0.45746657, -0.06578711, 0.88243181, -2.13913488, -10.59968472, 3.69489431, 0.00000000, 0.00000000, 0.00000000, 176.60685730, 24.44029427, -145.60119629, -0.19355789, -0.29485831, 0.93137383, 0.09020469, -0.04372194, 0.01190284, 0.02636522, 0.00000000, 0.00000000, 0.00000000, 0.00000000
1, 0.6025, 228, 0.45941672, -0.06724209, 0.88390124, -1.78693008, -10.18023396, 3.77100158, 0.00000000, 0.00000000, 0.00000000, 176.59742737, 24.46514130, -145.61320496, -0.19374581, -0.29476917, 0.93135148, 0.09032240, -0.04527730, 0.01321888, 0.02470762, 0.00000000, 0.00000000, 0.00000000, 0.00000000
1, 0.6050, 229, 0.45986402, -0.06482802, 0.88586533, -1.57546401, -10.04029465, 3.84405589, 0.00000000, 0.00000000, 0.00000000, 176.58843994, 24.48962593, -145.62538147, -0.19393212, -0.29467791, 0.93133068, 0.09043523, -0.04533569, 0.01067284, 0.02255834, 0.00000000, 0.00000000, 0.00000000, 0.00000000
1, 0.6075, 230, 0.46127787, -0.06192669, 0.88832676, -1.29362822, -9.76060104, 3.91863704, 0.00000000, 0.00000000, 0.00000000, 176.58009338, 24.51340103, -145.63772583, -0.19411439, -0.29458451, 0.93131202, 0.09054084, -0.04637194, 0.00764931, 0.01991719, 0.00000000, 0.00000000, 0.00000000, 0.00000000
1, 0.6100, 231, 0.46029359, -0.06096209, 0.88832372, -1.15611327, -8.92609406, 4.20331669, 0.00000000, 0.00000000, 0.00000000, 176.57180786, 24.53504753, -145.65072632, -0.19427998, -0.29448631, 0.93129885, 0.09063949, -0.04504395, 0.00656277, 0.01975578, 0.00000000, 0.00000000, 0.00000000, 0.00000000
1, 0.6125, 232, 0.45786759, -0.06243194, 0.88829666, -1.01640427, -8.57812309, 4.34621668, 0.00000000, 0.00000000, 0.00000000, 176.56373596, 24.55580521, -145.66404724, -0.19443914, -0.29438537, 0.93128836, 0.09073368, -0.04228843, 0.00791359, 0.01962495, 0.00000000, 0.00000000, 0.00000000, 0.00000000
1, 0.6150, 233, 0.45930788, -0.06195278, 0.89025891, -1.08938551, -8.23195171, 4.55623150, 0.00000000, 0.00000000, 0.00000000, 176.55523682, 24.57566261, -145.67791748, -0.19459040, -0.29428115, 0.93128067, 0.09082802, -0.04341341, 0.00730861, 0.01751095, 0.00000000, 0.00000000, 0.00000000, 0.00000000
1, 0.6175, 234, 0.45976529, -0.05855375, 0.89027995, -1.16250086, -7.53616619, 4.62833261, 0.00000000, 0.00000000, 0.00000000, 176.54652405, 24.59377289, -145.69184875, -0.19472685, -0.29417711, 0.93127596, 0.09091966, -0.04358345, 0.00377953, 0.01735020, 0.00000000, 0.00000000, 0.00000000, 0.00000000
1, 0.6200, 235, 0.46071845, -0.05709982, 0.89126909, -1.09393752, -7.04923248, 4.77099419, 0.00000000, 0.00000000, 0.00000000, 176.53785706, 24.61064529, -145.70613098, -0.19485359, -0.29407084, 0.93127447, 0.09100740, -0.04426888, 0.00219561, 0.01623040, 0.00000000, 0.00000000, 0.00000000, 0.00000000
1, 0.6225, 236, 0.45824838, -0.05469565, 0.89223564, -1.02482164, -6.91130447, 4.98180819, 0.00000000, 0.00000000, 0.00000000, 176.52911377, 24.62713623, -145.72094727, -0.19497754, -0.29396027, 0.93127501, 0.09109373, -0.04153714, -0.00033968, 0.01513577, 0.00000000, 0.00000000, 0.00000000, 0.00000000
1, 0.6250, 237, 0.45921168, -0.05225677, 0.89128172, -1.16791844, -6.49463177, 5.05173731, 0.00000000, 0.00000000, 0.00000000, 176.51995850, 24.64257622, -145.73588562, -0.19509195, -0.29384971, 0.93127745, 0.09118060, -0.04225550, -0.00291668, 0.01596874, 0.00000000, 0.00000000, 0.00000000, 0.00000000
1, 0.6275, 238, 0.45821327, -0.05130314, 0.89273971, -1.31140316, -5.93860102, 5.12231112, 0.00000000, 0.00000000, 0.00000000, 176.51040649, 24.65661812, -145.75094604, -0.19519401, -0.29373941, 0.93128240, 0.09126712, -0.04103435, -0.00401542, 0.01439953, 0.00000000, 0.00000000, 0.00000000, 0.00000000
1, 0.6300, 239, 0.45769256, -0.05133158, 0.89614463, -1.59623873, -5.59300995, 5.25991631, 0.00000000, 0.00000000, 0.00000000, 176.50000000, 24.66977310, -145.76632690, -0.19528694, -0.29362819, 0.93128914, 0.09135779, -0.04030500, -0.00414594, 0.01088882, 0.00000000, 0.00000000, 0.00000000, 0.00000000
1, 0.6325, 240, 0.45475274, -0.04989329, 0.89612830, -1.80945086, -5.10583782, 5.18976068, 0.00000000, 0.00000000, 0.00000000, 176.48916626, 24.68172264, -145.78143311, -0.19536875, -0.29352030, 0.93129700, 0.09144937, -0.03717572, -0.00575036, 0.01080775, 0.00000000, 0.00000000, 0.00000000, 0.00000000
1, 0.6350, 241, 0.45475349, -0.04891566, 0.89515918, -1.74127543, -4.47954655, 5.33306646, 0.00000000, 0.00000000, 0.00000000, 176.47837830, 24.69207764, -145.79684448, -0.19543795, -0.29341039, 0.93130851, 0.09153616, -0.03701217, -0.00689409, 0.01169110, 0.00000000, 0.00000000, 0.00000000, 0.00000000
1, 0.6375, 242, 0.45423752, -0.04894045, 0.89807713, -1.81383872, -4.13276529, 5.47331905, 0.00000000, 0.00000000, 0.00000000, 176.46984863, 24.71479988, -145.81057739, -0.19561252, -0.29330665, 0.93129462, 0.09163772, -0.03613589, -0.00699408, 0.00859952, 0.00000000, 0.00000000, 0.00000000, 0.00000000
1, 0.6400, 243, 0.44932806, -0.04703943, 0.89950842, -2.38192749, -3.85904884, 5.67683363, 0.00000000, 0.00000000, 0.00000000, 176.45710754, 24.72355080, -145.82681274, -0.19566430, -0.29319373, 0.93130958, 0.09173503, -0.03108770, -0.00909290, 0.00709182, 0.00000000, 0.00000000, 0.00000000, 0.00000000
1, 0.6425, 244, 0.44835317, -0.04606753, 0.89853150, -2.94915080, -3.44414735, 5.67170572, 0.00000000, 0.00000000, 0.00000000, 176.44297791, 24.73126793, -145.84298706, -0.19570409, -0.29308420, 0.93132538, 0.09184120, -0.02999050, -0.01028499, 0.00799865, 0.00000000, 0.00000000, 0.00000000, 0.00000000
1, 0.6450, 245, 0.44981259, -0.04508493, 0.89806122, -3.30510139, -2.81962752, 5.73995399, 0.00000000, 0.00000000, 0.00000000, 176.42790222, 24.73741150, -145.85923767, -0.19572872, -0.29297602, 0.93134332, 0.09195088, -0.03135252, -0.01150310, 0.00840932, 0.00000000, 0.00000000, 0.00000000, 0.00000000
1, 0.6475, 246, 0.44491220, -0.04366543, 0.89900309, -3.51817966, -2.68206811, 5.80771303, 0.00000000, 0.00000000, 0.00000000, 176.41223145, 24.74319458, -145.87565613, -0.19574907, -0.29286763, 0.93136197, 0.09206431, -0.02636045, -0.01316782, 0.00740981, 0.00000000, 0.00000000, 0.00000000, 0.00000000
1, 0.6500, 247, 0.44492626, -0.04365446, 0.89754212, -3.73097420, -2.19428682, 5.66779423, 0.00000000, 0.00000000, 0.00000000, 176.39624023, 24.74778366, -145.89160156, -0.19575843, -0.29276401, 0.93138129, 0.09217834, -0.02630181, -0.01342985, 0.00882155, 0.00000000, 0.00000000, 0.00000000, 0.00000000
1, 0.6525, 248, 0.44249126, -0.04464279, 0.89800447, -4.01536179, -1.70811999, 5.66651821, 0.00000000, 0.00000000, 0.00000000, 176.37956238, 24.75114822, -145.90748596, -0.19575609, -0.29266259, 0.93140215, 0.09229504, -0.02381346, -0.01270382, 0.00831783, 0.00000000, 0.00000000, 0.00000000, 0.00000000
1, 0.6550, 249, 0.43956915, -0.04465635, 0.89749384, -4.22779846, -1.49966371, 5.59507418, 0.00000000, 0.00000000, 0.00000000, 176.36244202, 24.75400352, -145.92311096, -0.19574830, -0.29256395, 0.93142295, 0.09241442, -0.02084601, -0.01295970, 0.00879055, 0.00000000, 0.00000000, 0.00000000, 0.00000000
1, 0.6575, 250, 0.43958727, -0.04561937, 0.89651501, -4.72384644, -1.08375716, 5.52106571, 0.00000000, 0.00000000, 0.00000000, 176.34419250, 24.75583267, -145.93846130, -0.19572902, -0.29246974, 0.93144393, 0.09254090, -0.02083522, -0.01228432, 0.00973767, 0.00000000, 0.00000000, 0.00000000, 0.00000000
1, 0.6600, 251, 0.43667418, -0.04611444, 0.89551485, -4.93631220, -1.01526797, 5.51874018, 0.00000000, 0.00000000, 0.00000000, 176.32543945, 24.75748253, -145.95379639, -0.19570701, -0.29237661, 0.93146485, 0.09267126, -0.01789600, -0.01208530, 0.01070672, 0.00000000, 0.00000000, 0.00000000, 0.00000000
1, 0.6625, 252, 0.43667418, -0.04611444, 0.89551485, -4.93631220, -1.01526797, 5.51874018, 0.00000000, 0.00000000, 0.00000000, 176.30667114, 24.75912857, -145.96914673, -0.19568500, -0.29228348, 0.93148577, 0.09280162, -0.01786989, -0.01238135, 0.01067561, 0.00000000, 0.00000000, 0.00000000, 0.00000000
1, 0.6650, 253, 0.43474361, -0.05001820, 0.89694053, -5.07796192, -0.66644824, 5.37906027, 0.00000000, 0.00000000, 0.00000000, 176.28773499, 24.75992393, -145.98403931, -0.19565524, -0.29219446, 0.93150687, 0.09293202, -0.01592672, -0.00877668, 0.00922489, 0.00000000, 0.00000000, 0.00000000, 0.00000000
1, 0.6675, 254, 0.43474361, -0.05001820, 0.89694053, -5.07796192, -0.66644824, 5.37906027, 0.00000000, 0.00000000, 0.00000000, 176.26879883, 24.76071167, -145.99893188, -0.19562551, -0.29210547, 0.93152803, 0.09306242, -0.01591423, -0.00907575, 0.00919956, 0.00000000, 0.00000000, 0.00000000, 0.00000000
1, 0.6700, 255, 0.43036643, -0.05149950, 0.89689767, -5.50169945, -0.80757749, 5.30335855, 0.00000000, 0.00000000, 0.00000000, 176.24888611, 24.76185989, -146.01364136, -0.19559608, -0.29201955, 0.93154722, 0.09320202, -0.01151884, -0.00790889, 0.00921351, 0.00000000, 0.00000000, 0.00000000, 0.00000000
1, 0.6725, 256, 0.43036643, -0.05149950, 0.89689767, -5.50169945, -0.80757749, 5.30335855, 0.00000000, 0.00000000, 0.00000000, 176.22897339, 24.76300430, -146.02836609, -0.19556665, -0.29193360, 0.93156636, 0.09334160, -0.01150072, -0.00822335, 0.00918442, 0.00000000, 0.00000000, 0.00000000, 0.00000000
1, 0.6750, 257, 0.43185520, -0.05537954, 0.89786386, -5.35993147, -0.59652942, 5.16656494, 0.00000000, 0.00000000, 0.00000000, 176.20956421, 24.76363945, -146.04266357, -0.19553412, -0.29185024, 0.93158579, 0.09347638, -0.01297942, -0.00464963, 0.00819326, 0.00000000, 0.00000000, 0.00000000, 0.00000000
1, 0.6775, 258, 0.43185520, -0.05537954, 0.89786386, -5.35993147, -0.59652942, 5.16656494, 0.00000000, 0.00000000, 0.00000000, 176.19018555, 24.76427269, -146.05696106, -0.19550160, -0.29176688, 0.93160522, 0.09361115, -0.01296938, -0.00495594, 0.00816822, 0.00000000, 0.00000000, 0.00000000, 0.00000000
1, 0.6800, 259, 0.42895010, -0.05782257, 0.89782798, -5.28853226, -0.52523589, 5.02824402, 0.00000000, 0.00000000, 0.00000000, 176.17112732, 24.76474571, -146.07087708, -0.19546834, -0.29168618, 0.93162417, 0.09374343, -0.01005680, -0.00281388, 0.00818062, 0.00000000, 0.00000000, 0.00000000, 0.00000000
1, 0.6825, 260, 0.42846191, -0.05831426, 0.89830863, -5.21755075, -0.45455137, 4.95968723, 0.00000000, 0.00000000, 0.00000000, 176.15234375, 24.76504898, -146.08457947, -0.19543423, -0.29160672, 0.93164313, 0.09387352, -0.00956381, -0.00261908, 0.00767774, 0.00000000, 0.00000000, 0.00000000, 0.00000000
1, 0.6850, 261, 0.42898047, -0.06121873, 0.89781088, -5.00486135, -0.45275256, 4.89257193, 0.00000000, 0.00000000, 0.00000000, 176.13418579, 24.76535988, -146.09811401, -0.19540158, -0.29152769, 0.93166208, 0.09399898, -0.01007745, -0.00000189, 0.00815404, 0.00000000, 0.00000000, 0.00000000, 0.00000000
1, 0.6875, 262, 0.42748091, -0.05930129, 0.89975673, -4.93429756, -0.38267684, 4.89377689, 0.00000000, 0.00000000, 0.00000000, 176.11697388, 24.76978874, -146.11111450, -0.19540468, -0.29145002, 0.93167263, 0.09412725, -0.00850770, -0.00218889, 0.00615746, 0.00000000, 0.00000000, 0.00000000, 0.00000000
1, 0.6900, 263, 0.42503616, -0.06078574, 0.90167761, -4.65226793, -0.17266166, 4.96803570, 0.00000000, 0.00000000, 0.00000000, 176.09962463, 24.76937294, -146.12480164, -0.19536841, -0.29136851, 0.93169397, 0.09424409, -0.00606951, -0.00097916, 0.00422096, 0.00000000, 0.00000000, 0.00000000, 0.00000000
1, 0.6925, 264, 0.42310232, -0.06273787, 0.90165210, -4.51033497, -0.17125951, 4.90003824, 0.00000000, 0.00000000, 0.00000000, 176.08268738, 24.76896858, -146.13829041, -0.19533315, -0.29128778, 0.93171507, 0.09435774, -0.00414208, 0.00070513, 0.00423098, 0.00000000, 0.00000000, 0.00000000, 0.00000000
1, 0.6950, 265, 0.42408225, -0.06321730, 0.90165752, -4.36879063, -0.03049917, 4.83268499, 0.00000000, 0.00000000, 0.00000000, 176.06620789, 24.76821709, -146.15156555, -0.19529609, -0.29120815, 0.93173677, 0.09446735, -0.00513387, 0.00092354, 0.00421333, 0.00000000, 0.00000000, 0.00000000, 0.00000000
1, 0.6975, 266, 0.42359447, -0.06322017, 0.90165359, -4.15590668, -0.09837945, 4.76524830, 0.00000000, 0.00000000, 0.00000000, 176.05033875, 24.76764679, -146.16467285, -0.19526184, -0.29112875, 0.93175793, 0.09457274, -0.00465524, 0.00067504, 0.00420398, 0.00000000, 0.00000000, 0.00000000, 0.00000000
1, 0.7625, 267, 0.44120112, -0.06454684, 0.89837945, -0.93982643, -6.75024176, 2.54164839, 0.00000000, 0.00000000, 0.00000000, 175.78012085, 24.96606827, -146.41862488, -0.19641052, -0.28947526, 0.93180162, 0.09681318, -0.01911980, -0.00216254, 0.00572085, 0.00000000, 0.00000000, 0.00000000, 0.00000000
1, 0.7650, 268, 0.44070029, -0.06309421, 0.89838278, -0.65727460, -7.02919769, 2.75317788, 0.00000000, 0.00000000, 0.00000000, 175.77467346, 24.98308754, -146.42761230, -0.19654346, -0.28940728, 0.93178749, 0.09688273, -0.01834971, -0.00369182, 0.00558609, 0.00000000, 0.00000000, 0.00000000, 0.00000000
1, 0.7675, 269, 0.44458061, -0.06113426, 0.89891112, -0.58671123, -6.95912218, 2.75438261, 0.00000000, 0.00000000, 0.00000000, 175.76940918, 24.99992943, -146.43661499, -0.19667539, -0.28933907, 0.93177378, 0.09695040, -0.02196360, -0.00572569, 0.00492781, 0.00000000, 0.00000000, 0.00000000, 0.00000000
1, 0.7700, 270, 0.44460449, -0.06062717, 0.89599168, -0.37688661, -6.68165016, 3.03736830, 0.00000000, 0.00000000, 0.00000000, 175.76435852, 25.01602554, -146.44633484, -0.19680241, -0.28926480, 0.93176353, 0.09701327, -0.02173290, -0.00630367, 0.00772286, 0.00000000, 0.00000000, 0.00000000, 0.00000000
1, 0.7725, 271, 0.44510171, -0.06061700, 0.89502162, -0.09546888, -6.40256548, 3.18171144, 0.00000000, 0.00000000, 0.00000000, 175.75987244, 25.03139877, -146.45639038, -0.19692519, -0.28918695, 0.93175584, 0.09706926, -0.02198699, -0.00637632, 0.00857443, 0.00000000, 0.00000000, 0.00000000, 0.00000000
1, 0.7750, 272, 0.44853041, -0.06058596, 0.89358830, -0.02435332, -6.68149328, 3.25106859, 0.00000000, 0.00000000, 0.00000000, 175.75544739, 25.04745293, -146.46670532, -0.19705398, -0.28910682, 0.93174762, 0.09712588, -0.02516181, -0.00646835, 0.00988424, 0.00000000, 0.00000000, 0.00000000, 0.00000000
1, 0.7775, 273, 0.44948786, -0.05961720, 0.89457506, 0.04518026, -6.54295635, 3.39212012, 0.00000000, 0.00000000, 0.00000000, 175.75103760, 25.06314278, -146.47737122, -0.19718009, -0.28902379, 0.93174100, 0.09718081, -0.02587122, -0.00749802, 0.00877673, 0.00000000, 0.00000000, 0.00000000, 0.00000000
1, 0.7800, 274, 0.44747779, -0.05674325, 0.89798278, 0.04331471, -6.47571230, 3.67149186, 0.00000000, 0.00000000, 0.00000000, 175.74630737, 25.07860374, -146.48881531, -0.19730419, -0.28893521, 0.93173629, 0.09723654, -0.02361670, -0.01043812, 0.00524944, 0.00000000, 0.00000000, 0.00000000, 0.00000000
1, 0.7825, 275, 0.44749078, -0.05819875, 0.89797544, 0.04106113, -6.26910973, 3.95150805, 0.00000000, 0.00000000, 0.00000000, 175.74125671, 25.09350014, -146.50097656, -0.19742349, -0.28884143, 0.93173426, 0.09729224, -0.02339420, -0.00905412, 0.00514096, 0.00000000, 0.00000000, 0.00000000, 0.00000000
1, 0.7850, 276, 0.44987229, -0.05334371, 0.89948058, 0.04086711, -6.19943142, 3.95183015, 0.00000000, 0.00000000, 0.00000000, 175.73619080, 25.10822296, -146.51310730, -0.19754140, -0.28874779, 0.93173265, 0.09734751, -0.02554304, -0.01398070, 0.00352115, 0.00000000, 0.00000000, 0.00000000, 0.00000000
1, 0.7875, 277, 0.44939822, -0.05382444, 0.89850026, 0.17974028, -5.85267687, 4.23425531, 0.00000000, 0.00000000, 0.00000000, 175.73724365, 25.13232422, -146.52262878, -0.19774908, -0.28866273, 0.93171149, 0.09737997, -0.02468809, -0.01347005, 0.00432467, 0.00000000, 0.00000000, 0.00000000, 0.00000000
1, 0.7900, 278, 0.45087609, -0.05331605, 0.89656663, 0.31961334, -5.71435261, 4.44595194, 0.00000000, 0.00000000, 0.00000000, 175.73234558, 25.14574432, -146.53605652, -0.19785780, -0.28855887, 0.93171549, 0.09742864, -0.02595395, -0.01404824, 0.00615323, 0.00000000, 0.00000000, 0.00000000, 0.00000000
1, 0.7925, 279, 0.45037490, -0.05235224, 0.89705455, 0.17671065, -5.36735868, 4.51555920, 0.00000000, 0.00000000, 0.00000000, 175.72703552, 25.15828705, -146.54959106, -0.19795842, -0.28845489, 0.93172109, 0.09747833, -0.02525461, -0.01508883, 0.00556630, 0.00000000, 0.00000000, 0.00000000, 0.00000000
1, 0.7950, 280, 0.44940796, -0.05332831, 0.89704174, 0.17448692, -5.02079058, 4.72645712, 0.00000000, 0.00000000, 0.00000000, 175.72149658, 25.16992569, -146.56364441, -0.19805153, -0.28834739, 0.93172950, 0.09752679, -0.02410386, -0.01419359, 0.00548643, 0.00000000, 0.00000000, 0.00000000, 0.00000000
1, 0.7975, 281, 0.44941664, -0.05429864, 0.89703685, 0.10269972, -4.95272493, 4.86542130, 0.00000000, 0.00000000, 0.00000000, 175.71560669, 25.18136024, -146.57806396, -0.19814251, -0.28823751, 0.93173903, 0.09757689, -0.02393184, -0.01330953, 0.00539982, 0.00000000, 0.00000000, 0.00000000, 0.00000000
1, 0.8000, 282, 0.45084968, -0.05089388, 0.89706582, 0.10041629, -4.88608980, 5.21455574, 0.00000000, 0.00000000, 0.00000000, 175.70932007, 25.19256592, -146.59344482, -0.19823132, -0.28812063, 0.93175083, 0.09762810, -0.02518794, -0.01680718, 0.00528032, 0.00000000, 0.00000000, 0.00000000, 0.00000000
1, 0.8025, 283, 0.45377213, -0.05039151, 0.89709193, 0.09977454, -4.95698643, 5.35375881, 0.00000000, 0.00000000, 0.00000000, 175.70285034, 25.20392036, -146.60922241, -0.19832131, -0.28800082, 0.93176329, 0.09768038, -0.02793107, -0.01740508, 0.00516248, 0.00000000, 0.00000000, 0.00000000, 0.00000000
1, 0.8050, 284, 0.45185634, -0.05330667, 0.89608753, 0.23820001, -4.75080919, 5.77506495, 0.00000000, 0.00000000, 0.00000000, 175.69625854, 25.21467972, -146.62612915, -0.19840707, -0.28787225, 0.93177956, 0.09773038, -0.02584539, -0.01458787, 0.00607926, 0.00000000, 0.00000000, 0.00000000, 0.00000000
1, 0.8075, 285, 0.44751066, -0.05671768, 0.89457393, 0.30715150, -4.40323448, 5.91708231, 0.00000000, 0.00000000, 0.00000000, 175.68968201, 25.22454453, -146.64335632, -0.19848588, -0.28774124, 0.93179834, 0.09777740, -0.02134398, -0.01127479, 0.00751198, 0.00000000, 0.00000000, 0.00000000, 0.00000000
1, 0.8100, 286, 0.44556454, -0.05623667, 0.89358664, -0.04869497, -4.26829481, 6.19236374, 0.00000000, 0.00000000, 0.00000000, 175.68191528, 25.23401833, -146.66130066, -0.19855911, -0.28760642, 0.93181849, 0.09783198, -0.01924819, -0.01187290, 0.00841969, 0.00000000, 0.00000000, 0.00000000, 0.00000000
1, 0.8125, 287, 0.45044285, -0.05571917, 0.89314157, -0.40251175, -4.41024494, 6.25706911, 0.00000000, 0.00000000, 0.00000000, 175.67317200, 25.24383545, -146.67945862, -0.19863290, -0.28747156, 0.93183780, 0.09789494, -0.02397156, -0.01252262, 0.00878161, 0.00000000, 0.00000000, 0.00000000, 0.00000000
1, 0.8150, 288, 0.45284277, -0.05133834, 0.89318329, -0.33136633, -4.54920626, 6.25730753, 0.00000000, 0.00000000, 0.00000000, 175.66458130, 25.25399208, -146.69764709, -0.19870993, -0.28733608, 0.93185663, 0.09795732, -0.02621115, -0.01703295, 0.00865412, 0.00000000, 0.00000000, 0.00000000, 0.00000000
1, 0.8175, 289, 0.45335266, -0.05327249, 0.89269048, -0.04814277, -4.61729908, 6.26051569, 0.00000000, 0.00000000, 0.00000000, 175.65667725, 25.26431847, -146.71588135, -0.19879012, -0.28719914, 0.93187577, 0.09801438, -0.02655805, -0.01521726, 0.00906086, 0.00000000, 0.00000000, 0.00000000, 0.00000000
1, 0.8200, 290, 0.45241034, -0.05911482, 0.89460117, 0.02158482, -4.54844093, 6.40124559, 0.00000000, 0.00000000, 0.00000000, 175.64878845, 25.27444458, -146.73448181, -0.19886903, -0.28705919, 0.93189621, 0.09807020, -0.02545590, -0.00949330, 0.00706560, 0.00000000, 0.00000000, 0.00000000, 0.00000000
1, 0.8225, 291, 0.45289308, -0.05960443, 0.89557660, -0.11990009, -4.40926743, 6.33036184, 0.00000000, 0.00000000, 0.00000000, 175.64064026, 25.28423309, -146.75285339, -0.19894436, -0.28692153, 0.93191636, 0.09812771, -0.02578416, -0.00912637, 0.00600755, 0.00000000, 0.00000000, 0.00000000, 0.00000000
1, 0.8250, 292, 0.45287645, -0.05668613, 0.89461732, -0.26105669, -4.68938589, 6.39707136, 0.00000000, 0.00000000, 0.00000000, 175.63203430, 25.29470825, -146.77146912, -0.19902436, -0.28678256, 0.93193549, 0.09819014, -0.02560222, -0.01217420, 0.00687879, 0.00000000, 0.00000000, 0.00000000, 0.00000000
1, 0.8275, 293, 0.44944376, -0.05574318, 0.89556855, -0.26105669, -4.68938589, 6.39707136, 0.00000000, 0.00000000, 0.00000000, 175.62341309, 25.30517387, -146.79010010, -0.19910435, -0.28664359, 0.93195462, 0.09825256, -0.02200440, -0.01324670, 0.00583929, 0.00000000, 0.00000000, 0.00000000, 0.00000000
1, 0.8300, 294, 0.44462115, -0.06354547, 0.89695096, -0.33261999, -4.55103254, 6.46659517, 0.00000000, 0.00000000, 0.00000000, 175.61454773, 25.31528091, -146.80889893, -0.19918095, -0.28650379, 0.93197459, 0.09831587, -0.01702232, -0.00557812, 0.00437093, 0.00000000, 0.00000000, 0.00000000, 0.00000000
1, 0.8325, 295, 0.44173232, -0.06939562, 0.89835894, -0.26186261, -4.55063629, 6.46747780, 0.00000000, 0.00000000, 0.00000000, 175.60586548, 25.32538795, -146.82769775, -0.19925795, -0.28636366, 0.93199468, 0.09837774, -0.01397404, 0.00014105, 0.00287724, 0.00000000, 0.00000000, 0.00000000, 0.00000000
1, 0.8350, 296, 0.44510823, -0.06452024, 0.89792395, -0.26228049, -4.55124521, 6.53724003, 0.00000000, 0.00000000, 0.00000000, 175.59707642, 25.33547783, -146.84667969, -0.19933482, -0.28622210, 0.93201518, 0.09843992, -0.01719079, -0.00486671, 0.00322652, 0.00000000, 0.00000000, 0.00000000, 0.00000000
1, 0.8375, 297, 0.44994715, -0.06012507, 0.89798540, -0.19132908, -4.62052774, 6.53780031, 0.00000000, 0.00000000, 0.00000000, 175.59231567, 25.35386658, -146.86355591, -0.19948775, -0.28608897, 0.93201768, 0.09849273, -0.02173963, -0.00932636, 0.00302219, 0.00000000, 0.00000000, 0.00000000, 0.00000000
1, 0.8400, 298, 0.44997460, -0.06108079, 0.89603263, -0.04842634, -4.96752071, 6.46819305, 0.00000000, 0.00000000, 0.00000000, 175.58409119, 25.36500549, -146.88244629, -0.19957455, -0.28594700, 0.93203634, 0.09855287, -0.02159140, -0.00849344, 0.00488204, 0.00000000, 0.00000000, 0.00000000, 0.00000000
1, 0.8425, 299, 0.44908366, -0.06737175, 0.89307106, -0.04762042, -5.10627079, 6.39778709, 0.00000000, 0.00000000, 0.00000000, 175.57594299, 25.37650299, -146.90118408, -0.19966432, -0.28580615, 0.93205392, 0.09861355, -0.02051917, -0.00232394, 0.00774801, 0.00000000, 0.00000000, 0.00000000, 0.00000000
1, 0.8450, 300, 0.45009175, -0.06782926, 0.89015460, -0.39976567, -5.24578476, 6.18344212, 0.00000000, 0.00000000, 0.00000000, 175.56715393, 25.38838196, -146.91937256, -0.19975519, -0.28567085, 0.93206877, 0.09868132, -0.02133993, -0.00199781, 0.01056510, 0.00000000, 0.00000000, 0.00000000, 0.00000000
1, 0.8475, 301, 0.45152843, -0.06588730, 0.89115018, -0.54131031, -5.38654566, 6.25079536, 0.00000000, 0.00000000, 0.00000000, 175.55790710, 25.40060234, -146.93777466, -0.19984791, -0.28553450, 0.93208307, 0.09875313, -0.02258394, -0.00407799, 0.00946719, 0.00000000, 0.00000000, 0.00000000, 0.00000000
1, 0.8500, 302, 0.45204294, -0.06781778, 0.89017040, -0.54034019, -5.73494101, 6.24918509, 0.00000000, 0.00000000, 0.00000000, 175.54862976, 25.41368294, -146.95623779, -0.19994769, -0.28539741, 0.93209583, 0.09882709, -0.02289224, -0.00228573, 0.01033777, 0.00000000, 0.00000000, 0.00000000, 0.00000000
1, 0.8525, 303, 0.45109233, -0.07220097, 0.89160138, -0.46858293, -5.94297266, 6.17933941, 0.00000000, 0.00000000, 0.00000000, 175.53958130, 25.42729950, -146.97457886, -0.20005226, -0.28526098, 0.93210727, 0.09890056, -0.02172700, 0.00196330, 0.00879431, 0.00000000, 0.00000000, 0.00000000, 0.00000000
1, 0.8550, 304, 0.45159245, -0.07463124, 0.89256710, -0.39824340, -5.94318485, 6.24998426, 0.00000000, 0.00000000, 0.00000000, 175.53063965, 25.44088936, -146.99311829, -0.20015717, -0.28512278, 0.93211937, 0.09897292, -0.02201289, 0.00426082, 0.00771576, 0.00000000, 0.00000000, 0.00000000, 0.00000000
1, 0.8575, 305, 0.45253658, -0.07269580, 0.89404577, -0.46735913, -6.08111334, 6.03917027, 0.00000000, 0.00000000, 0.00000000, 175.52174377, 25.45487022, -147.01109314, -0.20026489, -0.28498885, 0.93212938, 0.09904663, -0.02273670, 0.00219378, 0.00612176, 0.00000000, 0.00000000, 0.00000000, 0.00000000
1, 0.8600, 306, 0.45106453, -0.07173407, 0.89403880, -0.53808659, -5.94154310, 5.96916914, 0.00000000, 0.00000000, 0.00000000, 175.51275635, 25.46851540, -147.02885437, -0.20036946, -0.28485698, 0.93213934, 0.09912059, -0.02104962, 0.00109896, 0.00601566, 0.00000000, 0.00000000, 0.00000000, 0.00000000
1, 0.8625, 307, 0.45305622, -0.07413382, 0.89209443, -0.32639652, -5.73131561, 5.97278309, 0.00000000, 0.00000000, 0.00000000, 175.50431824, 25.48163033, -147.04658508, -0.20047107, -0.28472453, 0.93215066, 0.09918895, -0.02283466, 0.00337379, 0.00785130, 0.00000000, 0.00000000, 0.00000000, 0.00000000
1, 0.8650, 308, 0.45506233, -0.07603378, 0.88820457, -0.11490043, -5.45140982, 5.97671890, 0.00000000, 0.00000000, 0.00000000, 175.49641418, 25.49404144, -147.06427002, -0.20056829, -0.28459170, 0.93216372, 0.09925129, -0.02464525, 0.00515702, 0.01163852, 0.00000000, 0.00000000, 0.00000000, 0.00000000
1, 0.8675, 309, 0.45116287, -0.07849716, 0.89010870, 0.02770382, -5.23914337, 5.70040035, 0.00000000, 0.00000000, 0.00000000, 175.48921204, 25.50598145, -147.08114624, -0.20066267, -0.28446430, 0.93217623, 0.09930820, -0.02055770, 0.00751442, 0.00963598, 0.00000000, 0.00000000, 0.00000000, 0.00000000
1, 0.8700, 310, 0.45311406, -0.07848569, 0.89012450, -0.11336321, -5.09936190, 5.55975437, 0.00000000, 0.00000000, 0.00000000, 175.48184204, 25.51759720, -147.09761047, -0.20075364, -0.28434068, 0.93218815, 0.09936649, -0.02232591, 0.00739401, 0.00952405, 0.00000000, 0.00000000, 0.00000000, 0.00000000
1, 0.8725, 311, 0.45404953, -0.07557992, 0.89160794, -0.18328485, -5.09854078, 5.41934681, 0.00000000, 0.00000000, 0.00000000, 175.47445679, 25.52924156, -147.11369324, -0.20084447, -0.28422022, 0.93219900, 0.09942558, -0.02307799, 0.00437917, 0.00794417, 0.00000000, 0.00000000, 0.00000000, 0.00000000
1, 0.8750, 312, 0.45405927, -0.07508379, 0.89014947, 0.10077447, -5.16541576, 5.28303003, 0.00000000, 0.00000000, 0.00000000, 175.46794128, 25.54106903, -147.12940979, -0.20093869, -0.28410113, 0.93220937, 0.09947871, -0.02290145, 0.00378763, 0.00930578, 0.00000000, 0.00000000, 0.00000000, 0.00000000
1, 0.8775, 313, 0.45406431, -0.07459132, 0.88917792, 0.24154307, -4.74593878, 5.21696520, 0.00000000, 0.00000000, 0.00000000, 175.46186829, 25.55186272, -147.14488220, -0.20102537, -0.28398365, 0.93222141, 0.09952608, -0.02273652, 0.00320647, 0.01018876, 0.00000000, 0.00000000, 0.00000000, 0.00000000
1, 0.8800, 314, 0.45406431, -0.07459132, 0.88917792, 0.24154307, -4.74593878, 5.21696520, 0.00000000, 0.00000000, 0.00000000, 175.45581055, 25.56266022, -147.16032410, -0.20111206, -0.28386617, 0.93223345, 0.09957346, -0.02256653, 0.00311774, 0.01010025, 0.00000000, 0.00000000, 0.00000000, 0.00000000
1, 0.8825, 315, 0.44967517, -0.07315068, 0.88768888, 0.31444952, -4.46256447, 4.73079824, 0.00000000, 0.00000000, 0.00000000, 175.45053101, 25.57284546, -147.17437744, -0.20119449, -0.28375891, 0.93224382, 0.09961545, -0.01801703, 0.00160036, 0.01150626, 0.00000000, 0.00000000, 0.00000000, 0.00000000
1, 0.8850, 316, 0.44967517, -0.07315068, 0.88768888, 0.31444952, -4.46256447, 4.73079824, 0.00000000, 0.00000000, 0.00000000, 175.44525146, 25.58302879, -147.18843079, -0.20127693, -0.28365165, 0.93225420, 0.09965745, -0.01785672, 0.00152360, 0.01142305, 0.00000000, 0.00000000, 0.00000000, 0.00000000
1, 0.8875, 317, 0.44438243, -0.07605669, 0.88276088, 0.52987075, -4.38682461, 4.17566824, 0.00000000, 0.00000000, 0.00000000, 175.43814087, 25.60188484, -147.20199585, -0.20142537, -0.28354961, 0.93224490, 0.09973536, -0.01226709, 0.00432930, 0.01620061, 0.00000000, 0.00000000, 0.00000000, 0.00000000
1, 0.8900, 318, 0.44438243, -0.07605669, 0.88276088, 0.52987075, -4.38682461, 4.17566824, 0.00000000, 0.00000000, 0.00000000, 175.43405151, 25.61198616, -147.21449280, -0.20150876, -0.28345278, 0.93225247, 0.09977006, -0.01210815, 0.00427135, 0.01611936, 0.00000000, 0.00000000, 0.00000000, 0.00000000
1, 0.8925, 319, 0.44191596, -0.07511530, 0.88469404, 1.30814219, -4.66239452, 4.32361364, 0.00000000, 0.00000000, 0.00000000, 175.43171692, 25.62274361, -147.22747803, -0.20160227, -0.28334892, 0.93226159, 0.09979130, -0.00947240, 0.00329969, 0.01410234, 0.00000000, 0.00000000, 0.00000000, 0.00000000
1, 0.8950, 320, 0.44191596, -0.07511530, 0.88469404, 1.30814219, -4.66239452, 4.32361364, 0.00000000, 0.00000000, 0.00000000, 175.42936707, 25.63350296, -147.24046326, -0.20169577, -0.28324506, 0.93227065, 0.09981253, -0.00930307, 0.00326938, 0.01401854, 0.00000000, 0.00000000, 0.00000000, 0.00000000
1, 0.8975, 321, 0.44386134, -0.07022294, 0.88083833, 1.38167560, -5.35757160, 4.18175077, 0.00000000, 0.00000000, 0.00000000, 175.42730713, 25.64602280, -147.25320435, -0.20180418, -0.28314227, 0.93227589, 0.09983594, -0.01105145, -0.00164776, 0.01777745, 0.00000000, 0.00000000, 0.00000000, 0.00000000
1, 0.9000, 322, 0.44913459, -0.06195820, 0.88287127, 1.31211221, -5.63607550, 4.10981750, 0.00000000, 0.00000000, 0.00000000, 175.42514038, 25.65924644, -147.26580811, -0.20191796, -0.28304061, 0.93227935, 0.09986217, -0.01611668, -0.00993870, 0.01564205, 0.00000000, 0.00000000, 0.00000000, 0.00000000
1, 0.9025, 323, 0.45250323, -0.06050821, 0.88631511, 1.52583206, -5.70273876, 3.90285563, 0.00000000, 0.00000000, 0.00000000, 175.42373657, 25.67268181, -147.27786255, -0.20203486, -0.28294206, 0.93228167, 0.09988354, -0.01927397, -0.01140265, 0.01209522, 0.00000000, 0.00000000, 0.00000000, 0.00000000
1, 0.9050, 324, 0.45589000, -0.06002123, 0.88878006, 1.59784317, -5.70051527, 3.69445086, 0.00000000, 0.00000000, 0.00000000, 175.42274475, 25.68615150, -147.28933716, -0.20215262, -0.28284746, 0.93228281, 0.09990252, -0.02244887, -0.01189685, 0.00952757, 0.00000000, 0.00000000, 0.00000000, 0.00000000
1, 0.9075, 325, 0.45396051, -0.06245853, 0.88875210, 1.45799983, -5.69887352, 3.41363597, 0.00000000, 0.00000000, 0.00000000, 175.42176819, 25.69967270, -147.30004883, -0.20227011, -0.28275916, 0.93228191, 0.09992308, -0.02030671, -0.00946697, 0.00945223, 0.00000000, 0.00000000, 0.00000000, 0.00000000
1, 0.9100, 326, 0.45293829, -0.06201199, 0.89312947, 1.31654465, -5.41973305, 3.27363420, 0.00000000, 0.00000000, 0.00000000, 175.42060852, 25.71252632, -147.31030273, -0.20238133, -0.28267497, 0.93228108, 0.09994418, -0.01908237, -0.00992386, 0.00497639, 0.00000000, 0.00000000, 0.00000000, 0.00000000
1, 0.9125, 327, 0.44758046, -0.06399150, 0.89405030, 1.24607110, -5.06990814, 3.06507444, 0.00000000, 0.00000000, 0.00000000, 175.41955566, 25.72454643, -147.31991577, -0.20248541, -0.28259602, 0.93228024, 0.09996362, -0.01353550, -0.00795356, 0.00396359, 0.00000000, 0.00000000, 0.00000000, 0.00000000
1, 0.9150, 328, 0.44619301, -0.06931501, 0.89108962, 1.31855941, -4.78714228, 2.64867043, 0.00000000, 0.00000000, 0.00000000, 175.41920471, 25.73595047, -147.32829285, -0.20258513, -0.28252590, 0.93227828, 0.09997801, -0.01196880, -0.00262857, 0.00683767, 0.00000000, 0.00000000, 0.00000000, 0.00000000
1, 0.9175, 329, 0.44672343, -0.06879044, 0.88622624, 1.67198825, -4.50583363, 2.58460879, 0.00000000, 0.00000000, 0.00000000, 175.41984558, 25.74666214, -147.33644104, -0.20268145, -0.28245610, 0.93227792, 0.09998321, -0.01233080, -0.00313661, 0.01162094, 0.00000000, 0.00000000, 0.00000000, 0.00000000
1, 0.9200, 330, 0.44869196, -0.06436863, 0.88042015, 2.30732703, -4.57437801, 2.87127972, 0.00000000, 0.00000000, 0.00000000, 175.42172241, 25.75749016, -147.34539795, -0.20278248, -0.28237754, 0.93228048, 0.09997718, -0.01412911, -0.00752247, 0.01734752, 0.00000000, 0.00000000, 0.00000000, 0.00000000
1, 0.9225, 331, 0.45010975, -0.05609028, 0.87755167, 2.58965540, -4.92362213, 3.15224981, 0.00000000, 0.00000000, 0.00000000, 175.42393494, 25.76913071, -147.35520935, -0.20289171, -0.28229126, 0.93228376, 0.09996878, -0.01536387, -0.01575913, 0.02013075, 0.00000000, 0.00000000, 0.00000000, 0.00000000
1, 0.9250, 332, 0.44909006, -0.05222200, 0.87853730, 2.59043145, -5.20233822, 3.15096164, 0.00000000, 0.00000000, 0.00000000, 175.42611694, 25.78146553, -147.36508179, -0.20300661, -0.28220436, 0.93228579, 0.09996209, -0.01415036, -0.01958575, 0.01905448, 0.00000000, 0.00000000, 0.00000000, 0.00000000
1, 0.9275, 333, 0.45301810, -0.05559887, 0.87903869, 2.44908118, -5.41277742, 3.21799254, 0.00000000, 0.00000000, 0.00000000, 175.42784119, 25.79431725, -147.37518311, -0.20312476, -0.28211626, 0.93228698, 0.09995985, -0.01787642, -0.01617406, 0.01845819, 0.00000000, 0.00000000, 0.00000000, 0.00000000
1, 0.9300, 334, 0.45835570, -0.05558925, 0.88200408, 2.23758483, -5.69268370, 3.21405673, 0.00000000, 0.00000000, 0.00000000, 175.42901611, 25.80785942, -147.38534546, -0.20324728, -0.28202850, 0.93228632, 0.09996361, -0.02300123, -0.01615711, 0.01539159, 0.00000000, 0.00000000, 0.00000000, 0.00000000
1, 0.9325, 335, 0.45930350, -0.05511661, 0.88444930, 2.02547693, -5.90352011, 3.28020549, 0.00000000, 0.00000000, 0.00000000, 175.42955017, 25.82191849, -147.39573669, -0.20337266, -0.28193992, 0.93228471, 0.09997328, -0.02372816, -0.01661276, 0.01284051, 0.00000000, 0.00000000, 0.00000000, 0.00000000
1, 0.9350, 336, 0.45585778, -0.05271817, 0.88540787, 2.16657352, -5.90333557, 3.35173321, 0.00000000, 0.00000000, 0.00000000, 175.43035889, 25.83596611, -147.40631104, -0.20349877, -0.28184929, 0.93228394, 0.09998041, -0.02006176, -0.01899011, 0.01177657, 0.00000000, 0.00000000, 0.00000000, 0.00000000
1, 0.9375, 337, 0.45090640, -0.05036121, 0.89073747, 2.23771906, -6.04229689, 3.35197163, 0.00000000, 0.00000000, 0.00000000, 175.44015503, 25.85681343, -147.41236877, -0.20369866, -0.28177792, 0.93226629, 0.09993812, -0.01478291, -0.02118109, 0.00630099, 0.00000000, 0.00000000, 0.00000000, 0.00000000
1, 0.9400, 338, 0.45136133, -0.05038392, 0.89415032, 2.09565210, -5.69408607, 3.28205419, 0.00000000, 0.00000000, 0.00000000, 175.44087219, 25.87035179, -147.42272949, -0.20382021, -0.28168944, 0.93226576, 0.09994508, -0.01502523, -0.02113883, 0.00278622, 0.00000000, 0.00000000, 0.00000000, 0.00000000
1, 0.9425, 339, 0.45184660, -0.05380279, 0.89754599, 2.23683858, -5.27400064, 3.14622664, 0.00000000, 0.00000000, 0.00000000, 175.44215393, 25.88287354, -147.43260193, -0.20393439, -0.28160399, 0.93226653, 0.09994599, -0.01531387, -0.01769234, -0.00070286, 0.00000000, 0.00000000, 0.00000000, 0.00000000
1, 0.9450, 340, 0.45375770, -0.05089128, 0.89903742, 2.30626750, -4.64588308, 3.08024526, 0.00000000, 0.00000000, 0.00000000, 175.44375610, 25.89384079, -147.44216919, -0.20403633, -0.28152096, 0.93226981, 0.09994134, -0.01705277, -0.02057228, -0.00227559, 0.00000000, 0.00000000, 0.00000000, 0.00000000
1, 0.9475, 341, 0.45327094, -0.04942770, 0.89757985, 2.16261864, -3.88020635, 3.08202267, 0.00000000, 0.00000000, 0.00000000, 175.44505310, 25.90289688, -147.45155334, -0.20412180, -0.28144020, 0.93227619, 0.09993490, -0.01642383, -0.02200999, -0.00088525, 0.00000000, 0.00000000, 0.00000000, 0.00000000
1, 0.9500, 342, 0.45525289, -0.05232356, 0.89709401, 1.87890244, -3.18317556, 2.87242532, 0.00000000, 0.00000000, 0.00000000, 175.44596863, 25.91025734, -147.46023560, -0.20419182, -0.28136647, 0.93228376, 0.09992902, -0.01829017, -0.01909538, -0.00045413, 0.00000000, 0.00000000, 0.00000000, 0.00000000
1, 0.9525, 343, 0.45720774, -0.05377490, 0.89807636, 1.38204873, -2.62851954, 2.86882377, 0.00000000, 0.00000000, 0.00000000, 175.44569397, 25.91623878, -147.46875000, -0.20424747, -0.28129619, 0.93229258, 0.09992981, -0.02015117, -0.01764466, -0.00148237, 0.00000000, 0.00000000, 0.00000000, 0.00000000
1, 0.9550, 344, 0.45425311, -0.05332521, 0.90049011, 0.95628065, -2.49275875, 3.00369763, 0.00000000, 0.00000000, 0.00000000, 175.44421387, 25.92185593, -147.47761536, -0.20429751, -0.28122541, 0.93230200, 0.09993904, -0.01710835, -0.01811423, -0.00394070, 0.00000000, 0.00000000, 0.00000000, 0.00000000
1, 0.9575, 345, 0.45424154, -0.05626543, 0.90437126, 0.45965064, -1.86781490, 2.93065500, 0.00000000, 0.00000000, 0.00000000, 175.44161987, 25.92592621, -147.48616028, -0.20433193, -0.28115967, 0.93231267, 0.09995421, -0.01703289, -0.01521191, -0.00785613, 0.00000000, 0.00000000, 0.00000000, 0.00000000
1, 0.9600, 346, 0.45466429, -0.05533608, 0.91022390, 0.17523317, -1.52161491, 2.99849796, 0.00000000, 0.00000000, 0.00000000, 175.43829346, 25.92911911, -147.49479675, -0.20435742, -0.28109461, 0.93232465, 0.09997334, -0.01740551, -0.01619161, -0.01373720, 0.00000000, 0.00000000, 0.00000000, 0.00000000
1, 0.9625, 347, 0.45608649, -0.05389390, 0.91316503, -0.25072896, -1.31617522, 3.13369346, 0.00000000, 0.00000000, 0.00000000, 175.43373108, 25.93177795, -147.50376892, -0.20437582, -0.28102913, 0.93233746, 0.10000049, -0.01878599, -0.01770337, -0.01670427, 0.00000000, 0.00000000, 0.00000000, 0.00000000
1, 0.9650, 348, 0.45997259, -0.05046384, 0.91175270, -0.74841851, -0.76273668, 3.26961660, 0.00000000, 0.00000000, 0.00000000, 175.42782593, 25.93302727, -147.51301575, -0.20437960, -0.28096429, 0.93235248, 0.10003497, -0.02265248, -0.02122512, -0.01530874, 0.00000000, 0.00000000, 0.00000000, 0.00000000
1, 0.9675, 349, 0.46197295, -0.05383391, 0.90980345, -1.31686544, -0.20969491, 3.40465736, 0.00000000, 0.00000000, 0.00000000, 175.42037964, 25.93286705, -147.52247620, -0.20436835, -0.28090045, 0.93236953, 0.10007822, -0.02465534, -0.01797152, -0.01336765, 0.00000000, 0.00000000, 0.00000000, 0.00000000
1, 0.9700, 350, 0.46298832, -0.05721702, 0.90882027, -1.81397307, 0.13470632, 3.53961468, 0.00000000, 0.00000000, 0.00000000, 175.41157532, 25.93182755, -147.53225708, -0.20434676, -0.28083682, 0.93238789, 0.10013007, -0.02568705, -0.01472692, -0.01238752, 0.00000000, 0.00000000, 0.00000000, 0.00000000
1, 0.9725, 351, 0.46496195, -0.05865374, 0.90785474, -2.52168107, 0.48035270, 3.39287424, 0.00000000, 0.00000000, 0.00000000, 175.40119934, 25.92994881, -147.54156494, -0.20431413, -0.28078008, 0.93240535, 0.10019355, -0.02769012, -0.01345360, -0.01142061, 0.00000000, 0.00000000, 0.00000000, 0.00000000
1, 0.9750, 352, 0.46450523, -0.06107513, 0.90686464, -3.08935189, 0.75467825, 3.52662683, 0.00000000, 0.00000000, 0.00000000, 175.38928223, 25.92735863, -147.55116272, -0.20427212, -0.28072372, 0.93242347, 0.10026748, -0.02727407, -0.01122031, -0.01042598, 0.00000000, 0.00000000, 0.00000000, 0.00000000
1, 0.9775, 353, 0.46403408, -0.06399629, 0.90781999, -3.51286674, 0.68383664, 3.38148451, 0.00000000, 0.00000000, 0.00000000, 175.37648010, 25.92497444, -147.56037903, -0.20422930, -0.28067207, 0.93243957, 0.10034982, -0.02684040, -0.00850107, -0.01137942, 0.00000000, 0.00000000, 0.00000000, 0.00000000
1, 0.9800, 354, 0.46506789, -0.06785361, 0.90537339, -3.79644823, 1.03125429, 3.30980182, 0.00000000, 0.00000000, 0.00000000, 175.36308289, 25.92173386, -147.56932068, -0.20417783, -0.28062394, 0.93245614, 0.10043548, -0.02792505, -0.00485537, -0.00892514, 0.00000000, 0.00000000, 0.00000000, 0.00000000
1, 0.9825, 355, 0.46414396, -0.06781916, 0.90000868, -3.93915701, 1.30856860, 3.37908745, 0.00000000, 0.00000000, 0.00000000, 175.34927368, 25.91779327, -147.57838440, -0.20411970, -0.28057560, 0.93247402, 0.10052265, -0.02706299, -0.00510834, -0.00354797, 0.00000000, 0.00000000, 0.00000000, 0.00000000
1, 0.9850, 356, 0.46274999, -0.06923941, 0.89414573, -4.00972033, 1.23849285, 3.37788272, 0.00000000, 0.00000000, 0.00000000, 175.33526611, 25.91402245, -147.58747864, -0.20406255, -0.28052744, 0.93249136, 0.10061169, -0.02572820, -0.00390936, 0.00232583, 0.00000000, 0.00000000, 0.00000000, 0.00000000
1, 0.9875, 357, 0.46086311, -0.07115501, 0.88925028, -4.15007162, 0.81962478, 3.37418532, 0.00000000, 0.00000000, 0.00000000, 175.32186890, 25.92450333, -147.59559631, -0.20412262, -0.28048295, 0.93247879, 0.10073037, -0.02367678, -0.00219704, 0.00712442, 0.00000000, 0.00000000, 0.00000000, 0.00000000
1, 0.9900, 358, 0.46236268, -0.07307245, 0.88730443, -4.36211920, 0.88872278, 3.30209732, 0.00000000, 0.00000000, 0.00000000, 175.30703735, 25.92161942, -147.60453796, -0.20407060, -0.28043717, 0.93249333, 0.10082838, -0.02522168, -0.00051318, 0.00907320, 0.00000000, 0.00000000, 0.00000000, 0.00000000
1, 0.9925, 359, 0.46338382, -0.07498545, 0.88438064, -4.71510077, 0.74799007, 3.22727799, 0.00000000, 0.00000000, 0.00000000, 175.29142761, 25.91909218, -147.61331177, -0.20401944, -0.28039414, 0.93250602, 0.10093410, -0.02628246, 0.00115386, 0.01199609, 0.00000000, 0.00000000, 0.00000000, 0.00000000
1, 0.9950, 360, 0.46290979, -0.07546618, 0.88340032, -4.85645151, 0.53755057, 3.29430914, 0.00000000, 0.00000000, 0.00000000, 175.27534485, 25.91707420, -147.62231445, -0.20397153, -0.28034991, 0.93251789, 0.10104427, -0.02584007, 0.00138181, 0.01297104, 0.00000000, 0.00000000, 0.00000000, 0.00000000
1, 0.9975, 361, 0.46297234, -0.07981440, 0.88094336, -4.99732447, 0.60765392, 3.15334082, 0.00000000, 0.00000000, 0.00000000, 175.25909424, 25.91491127, -147.63092041, -0.20392166, -0.28030932, 0.93252885, 0.10115625, -0.02593660, 0.00547444, 0.01542348, 0.00000000, 0.00000000, 0.00000000, 0.00000000
1, 1.0000, 362, 0.46202421, -0.08077585, 0.87898260, -5.06599283, 0.61030126, 2.80364609, 0.00000000, 0.00000000, 0.00000000, 175.24310303, 25.91281319, -147.63853455, -0.20387208, -0.28027615, 0.93253750, 0.10126805, -0.02502141, 0.00618429, 0.01737923, 0.00000000, 0.00000000, 0.00000000, 0.00000000
1, 1.0025, 363, 0.46011317, -0.08368736, 0.87749124, -5.06512737, 0.75148594, 2.59500289, 0.00000000, 0.00000000, 0.00000000, 175.22737122, 25.91040421, -147.64553833, -0.20382012, -0.28024760, 0.93254560, 0.10137806, -0.02314818, 0.00884824, 0.01886851, 0.00000000, 0.00000000, 0.00000000, 0.00000000
1, 1.0050, 364, 0.45575839, -0.08661686, 0.87646711, -4.85173512, 1.10411537, 2.25044870, 0.00000000, 0.00000000, 0.00000000, 175.21263123, 25.90718460, -147.65153503, -0.20376299, -0.28022581, 0.93255341, 0.10148001, -0.01884395, 0.01154508, 0.01989782, 0.00000000, 0.00000000, 0.00000000, 0.00000000
1, 1.0075, 365, 0.45383254, -0.09051696, 0.87740576, -4.56797361, 1.59649992, 1.90742064, 0.00000000, 0.00000000, 0.00000000, 175.19906616, 25.90280914, -147.65643311, -0.20369840, -0.28021088, 0.93256217, 0.10157169, -0.01698679, 0.01523016, 0.01897461, 0.00000000, 0.00000000, 0.00000000, 0.00000000
1, 1.0100, 366, 0.45096430, -0.09390841, 0.87444299, -4.56666040, 1.87826025, 1.55989647, 0.00000000, 0.00000000, 0.00000000, 175.18595886, 25.89780235, -147.66032410, -0.20362882, -0.28020361, 0.93256992, 0.10166005, -0.01419714, 0.01841328, 0.02195800, 0.00000000, 0.00000000, 0.00000000, 0.00000000
1, 1.0125, 367, 0.45096067, -0.09244560, 0.87347639, -4.28395939, 2.29913926, 1.42583430, 0.00000000, 0.00000000, 0.00000000, 175.17375183, 25.89177513, -147.66372681, -0.20355268, -0.28019872, 0.93257928, 0.10173947, -0.01428816, 0.01675576, 0.02295435, 0.00000000, 0.00000000, 0.00000000, 0.00000000
1, 1.0150, 368, 0.44902289, -0.09342375, 0.87296879, -4.00084066, 2.72062683, 1.22200930, 0.00000000, 0.00000000, 0.00000000, 175.16255188, 25.88473892, -147.66647339, -0.20347016, -0.28019768, 0.93258995, 0.10180967, -0.01246086, 0.01755415, 0.02350057, 0.00000000, 0.00000000, 0.00000000, 0.00000000
1, 1.0175, 369, 0.44805628, -0.09391101, 0.87247139, -3.71730328, 3.14272332, 0.94842184, 0.00000000, 0.00000000, 0.00000000, 175.15243530, 25.87671471, -147.66836548, -0.20338139, -0.28020188, 0.93260139, 0.10187031, -0.01162025, 0.01787793, 0.02404547, 0.00000000, 0.00000000, 0.00000000, 0.00000000
1, 1.0200, 370, 0.44610369, -0.09587776, 0.87439376, -3.50391197, 3.49535275, 0.60386735, 0.00000000, 0.00000000, 0.00000000, 175.14331055, 25.86788368, -147.66920471, -0.20328751, -0.28021294, 0.93261278, 0.10192291, -0.00980637, 0.01969612, 0.02217806, 0.00000000, 0.00000000, 0.00000000, 0.00000000
1, 1.0225, 371, 0.44661352, -0.09781189, 0.87390101, -3.29241562, 3.77525926, 0.60780323, 0.00000000, 0.00000000, 0.00000000, 175.13473511, 25.85835075, -147.66999817, -0.20318924, -0.28022361, 0.93262601, 0.10196953, -0.01046589, 0.02148988, 0.02273173, 0.00000000, 0.00000000, 0.00000000, 0.00000000
1, 1.0250, 372, 0.44563359, -0.09733247, 0.87389553, -2.93837500, 3.98749709, 0.47365737, 0.00000000, 0.00000000, 0.00000000, 175.12722778, 25.84831429, -147.67036438, -0.20308907, -0.28023589, 0.93264002, 0.10200703, -0.00964359, 0.02088650, 0.02280331, 0.00000000, 0.00000000, 0.00000000, 0.00000000
1, 1.0275, 373, 0.44514436, -0.09929062, 0.87582976, -2.65531635, 4.12905121, 0.40806928, 0.00000000, 0.00000000, 0.00000000, 175.12052917, 25.83794403, -147.67051697, -0.20298792, -0.28024852, 0.93265492, 0.10203762, -0.00931728, 0.02273299, 0.02093875, 0.00000000, 0.00000000, 0.00000000, 0.00000000
1, 1.0300, 374, 0.44415572, -0.09784085, 0.87582922, -2.37248039, 4.20031691, 0.41192159, 0.00000000, 0.00000000, 0.00000000, 175.11453247, 25.82739258, -147.67066956, -0.20288704, -0.28026003, 0.93267071, 0.10206204, -0.00849438, 0.02118258, 0.02101106, 0.00000000, 0.00000000, 0.00000000, 0.00000000
1, 1.0325, 375, 0.44311005, -0.09741258, 0.88264149, -2.08964515, 4.27158260, 0.41577390, 0.00000000, 0.00000000, 0.00000000, 175.10923767, 25.81666374, -147.67080688, -0.20278643, -0.28027031, 0.93268752, 0.10208028, -0.00761720, 0.02066462, 0.01427311, 0.00000000, 0.00000000, 0.00000000, 0.00000000
1, 1.0350, 376, 0.44357437, -0.09742798, 0.88508034, -1.94687641, 4.27420187, 0.20825164, 0.00000000, 0.00000000, 0.00000000, 175.10456848, 25.80597496, -147.67036438, -0.20268705, -0.28028417, 0.93270326, 0.10209467, -0.00824952, 0.02059986, 0.01190901, 0.00000000, 0.00000000, 0.00000000, 0.00000000
1, 1.0375, 377, 0.44158629, -0.09649104, 0.88799143, -1.66307080, 3.99707246, 0.21049373, 0.00000000, 0.00000000, 0.00000000, 175.08322144, 25.80288315, -147.67762756, -0.20261602, -0.28026336, 0.93270808, 0.10224847, -0.00631002, 0.01932678, 0.00899261, 0.00000000, 0.00000000, 0.00000000, 0.00000000
1, 1.0400, 378, 0.44153097, -0.09506842, 0.89238161, -1.45199263, 4.27637005, 0.28419209, 0.00000000, 0.00000000, 0.00000000, 175.07969666, 25.79216766, -147.67739868, -0.20251951, -0.28027356, 0.93272561, 0.10225315, -0.00642309, 0.01784191, 0.00467861, 0.00000000, 0.00000000, 0.00000000, 0.00000000
1, 1.0425, 379, 0.44052321, -0.09412210, 0.89481348, -1.16815710, 4.13920736, 0.21731581, 0.00000000, 0.00000000, 0.00000000, 175.07693481, 25.78181076, -147.67701721, -0.20242766, -0.28028354, 0.93274260, 0.10225257, -0.00557807, 0.01684576, 0.00232136, 0.00000000, 0.00000000, 0.00000000, 0.00000000
1, 1.0450, 380, 0.44049537, -0.09365521, 0.89725083, -1.02638865, 4.35025549, 0.08052213, 0.00000000, 0.00000000, 0.00000000, 175.07472229, 25.77095795, -147.67619324, -0.20233265, -0.28029612, 0.93275994, 0.10224719, -0.00572082, 0.01633714, -0.00003678, 0.00000000, 0.00000000, 0.00000000, 0.00000000
1, 1.0475, 381, 0.43896905, -0.08980440, 0.90018052, -0.88403815, 4.35226679, -0.05723766, 0.00000000, 0.00000000, 0.00000000, 175.07304382, 25.76012802, -147.67501831, -0.20223880, -0.28031090, 0.93277681, 0.10223832, -0.00436470, 0.01245282, -0.00288695, 0.00000000, 0.00000000, 0.00000000, 0.00000000
1, 1.0500, 382, 0.43801048, -0.09223963, 0.90064734, -0.81325096, 4.49263000, -0.12547347, 0.00000000, 0.00000000, 0.00000000, 175.07162476, 25.74896812, -147.67358398, -0.20214269, -0.28032705, 0.93279409, 0.10222684, -0.00358158, 0.01485857, -0.00327122, 0.00000000, 0.00000000, 0.00000000, 0.00000000
1, 1.0525, 383, 0.43602276, -0.09081388, 0.90307385, -0.60020274, 4.21510410, -0.12411394, 0.00000000, 0.00000000, 0.00000000, 175.07070923, 25.73849487, -147.67224121, -0.20205352, -0.28034163, 0.93281060, 0.10221273, -0.00175852, 0.01341167, -0.00562000, 0.00000000, 0.00000000, 0.00000000, 0.00000000
1, 1.0550, 384, 0.43988428, -0.08886854, 0.90555006, -0.45813569, 3.86689329, -0.05419657, 0.00000000, 0.00000000, 0.00000000, 175.07002258, 25.72887230, -147.67117310, -0.20197214, -0.28035337, 0.93282628, 0.10219816, -0.00577131, 0.01144943, -0.00802452, 0.00000000, 0.00000000, 0.00000000, 0.00000000
1, 1.0575, 385, 0.43787092, -0.08404297, 0.90750670, -0.31442708, 3.38115025, -0.19421066, 0.00000000, 0.00000000, 0.00000000, 175.06980896, 25.72049332, -147.66983032, -0.20190184, -0.28036624, 0.93283927, 0.10218302, -0.00388971, 0.00661522, -0.00991816, 0.00000000, 0.00000000, 0.00000000, 0.00000000
1, 1.0950, 386, 0.44494742, -0.06611093, 0.91593504, -0.43740582, -3.72873783, -0.01953708, 0.00000000, 0.00000000, 0.00000000, 175.08177185, 25.75394440, -147.65029907, -0.20218752, -0.28049779, 0.93273640, 0.10219667, -0.01044029, -0.01110786, -0.01858300, 0.00000000, 0.00000000, 0.00000000, 0.00000000
1, 1.0975, 387, 0.44494742, -0.06611093, 0.91593504, -0.43740582, -3.72873783, -0.01953708, 0.00000000, 0.00000000, 0.00000000, 175.08030701, 25.76323700, -147.65113831, -0.20226076, -0.28049180, 0.93271887, 0.10222831, -0.01029423, -0.01112464, -0.01865507, 0.00000000, 0.00000000, 0.00000000, 0.00000000
1, 1.1000, 388, 0.44595197, -0.07145663, 0.91786397, -0.65157342, -3.80265117, 0.32630554, 0.00000000, 0.00000000, 0.00000000, 175.07789612, 25.77263641, -147.65295410, -0.20233339, -0.28047949, 0.93270254, 0.10226626, -0.01115105, -0.00581064, -0.02065837, 0.00000000, 0.00000000, 0.00000000, 0.00000000
1, 1.1025, 389, 0.44595197, -0.07145663, 0.91786397, -0.65157342, -3.80265117, 0.32630554, 0.00000000, 0.00000000, 0.00000000, 175.07548523, 25.78203583, -147.65476990, -0.20240605, -0.28046724, 0.93268633, 0.10230423, -0.01100329, -0.00584234, -0.02073264, 0.00000000, 0.00000000, 0.00000000, 0.00000000
1, 1.1050, 390, 0.44940123, -0.06896687, 0.91206002, -0.79926687, -3.39267516, 1.16362226, 0.00000000, 0.00000000, 0.00000000, 175.07173157, 25.79023933, -147.65878296, -0.20246761, -0.28043953, 0.93267667, 0.10234639, -0.01432365, -0.00838547, -0.01499587, 0.00000000, 0.00000000, 0.00000000, 0.00000000
1, 1.1075, 391, 0.44940123, -0.06896687, 0.91206002, -0.79926687, -3.39267516, 1.16362226, 0.00000000, 0.00000000, 0.00000000, 175.06799316, 25.79844093, -147.66281128, -0.20252916, -0.28041181, 0.93266702, 0.10238855, -0.01419476, -0.00843884, -0.01506299, 0.00000000, 0.00000000, 0.00000000, 0.00000000
1, 1.1100, 392, 0.44840974, -0.06507668, 0.91012371, -1.01410592, -3.67745185, 1.71778619, 0.00000000, 0.00000000, 0.00000000, 175.06300354, 25.80723190, -147.66845703, -0.20259395, -0.28037310, 0.93265903, 0.10243928, -0.01306516, -0.01240137, -0.01319993, 0.00000000, 0.00000000, 0.00000000, 0.00000000
1, 1.1125, 393, 0.44840974, -0.06507668, 0.91012371, -1.01410592, -3.67745185, 1.71778619, 0.00000000, 0.00000000, 0.00000000, 175.05799866, 25.81602287, -147.67408752, -0.20265874, -0.28033438, 0.93265104, 0.10249000, -0.01292703, -0.01247371, -0.01327318, 0.00000000, 0.00000000, 0.00000000, 0.00000000
