SensorId, TimeStamp (s), FrameNumber, AccX (g), AccY (g), AccZ (g), GyroX (deg/s), GyroY (deg/s), GyroZ (deg/s), MagX (uT), MagY (uT), MagZ (uT), EulerX (deg), EulerY (deg), EulerZ (deg), QuatW, QuatX, QuatY, QuatZ, LinAccX (g), LinAccY (g), LinAccZ (g), Pressure (kPa), Altitude (m), Temperature (degC), HeaveMotion (m)
1, -0.0000, 0, 0.02581744, 0.01375057, 0.99917203, -3.27061033, 1.85683417, -0.75974792, 0.00000000, 0.00000000, 0.00000000, -179.26359558, 1.93953550, 140.82504272, 0.01379080, -0.33529362, -0.94193971, 0.01172794, 0.00802737, -0.00090448, 0.00017244, 0.00000000, 0.00000000, 0.00000000, 0.00000000
1, 0.0025, 1, 0.02681255, 0.01474856, 0.99626291, -3.27196860, 2.34458804, -0.75749362, 0.00000000, 0.00000000, 0.00000000, -179.27171326, 1.93365049, 140.82685852, 0.01376636, -0.33527768, -0.94194680, 0.01164377, 0.00692960, -0.00204403, 0.00308692, 0.00000000, 0.00000000, 0.00000000, 0.00000000
1, 0.0050, 2, 0.02924358, 0.01671087, 0.99531841, -3.34289002, 2.55383730, -0.82717252, 0.00000000, 0.00000000, 0.00000000, -179.27999878, 1.92724037, 140.82885742, 0.01373812, -0.33526036, -0.94195455, 0.01155665, 0.00438676, -0.00415089, 0.00403696, 0.00000000, 0.00000000, 0.00000000, 0.00000000
1, 0.0075, 3, 0.03220183, 0.01479838, 0.99387133, -3.41481185, 2.97151542, -0.82612282, 0.00000000, 0.00000000, 0.00000000, -179.28846741, 1.91978645, 140.83081055, 0.01370182, -0.33524311, -0.94196230, 0.01146498, 0.00129849, -0.00238610, 0.00549030, 0.00000000, 0.00000000, 0.00000000, 0.00000000
1, 0.0100, 4, 0.03321251, 0.01141161, 0.99337512, -3.13152814, 3.18335724, -0.96115136, 0.00000000, 0.00000000, 0.00000000, -179.29708862, 1.91185558, 140.83311462, 0.01366205, -0.33522326, -0.94197106, 0.01137071, 0.00014946, 0.00085048, 0.00599307, 0.00000000, 0.00000000, 0.00000000, 0.00000000
1, 0.0125, 5, 0.03326710, 0.00901136, 0.98995405, -2.99059558, 3.39318800, -0.95842010, 0.00000000, 0.00000000, 0.00000000, -179.30448914, 1.90334404, 140.83540344, 0.01361396, -0.33520350, -0.94197983, 0.01128472, -0.00005360, 0.00312172, 0.00942069, 0.00000000, 0.00000000, 0.00000000, 0.00000000
1, 0.0150, 6, 0.03377334, 0.00854002, 0.98849463, -2.70859599, 3.46323586, -0.81504279, 0.00000000, 0.00000000, 0.00000000, -179.31120300, 1.89466226, 140.83732605, 0.01356239, -0.33518681, -0.94198745, 0.01120397, -0.00071128, 0.00347612, 0.01088643, 0.00000000, 0.00000000, 0.00000000, 0.00000000
1, 0.0175, 7, 0.03720927, 0.00564545, 0.98899454, -2.42617869, 3.53389263, -0.74142802, 0.00000000, 0.00000000, 0.00000000, -179.31719971, 1.88580585, 140.83908081, 0.01350733, -0.33517173, -0.94199455, 0.01112849, -0.00430171, 0.00626596, 0.01039285, 0.00000000, 0.00000000, 0.00000000, 0.00000000
1, 0.0200, 8, 0.03817149, 0.00661786, 0.98949426, -2.28549933, 3.53346825, -0.60013795, 0.00000000, 0.00000000, 0.00000000, -179.32286072, 1.87695515, 140.84046936, 0.01345128, -0.33515957, -0.94200051, 0.01105586, -0.00541832, 0.00519474, 0.00989932, 0.00000000, 0.00000000, 0.00000000, 0.00000000
1, 0.0225, 9, 0.04012739, 0.00663299, 0.98902309, -2.21666694, 3.32117510, -0.18164669, 0.00000000, 0.00000000, 0.00000000, -179.32839966, 1.86864758, 140.84083557, 0.01339919, -0.33515599, -0.94200337, 0.01098607, -0.00751913, 0.00508321, 0.01037646, 0.00000000, 0.00000000, 0.00000000, 0.00000000
1, 0.0250, 10, 0.04110876, 0.00810884, 0.98709035, -2.07743573, 3.38860369, 0.16925284, 0.00000000, 0.00000000, 0.00000000, -179.33361816, 1.86018157, 140.84031677, 0.01334478, -0.33515969, -0.94200361, 0.01091855, -0.00864818, 0.00351653, 0.01231504, 0.00000000, 0.00000000, 0.00000000, 0.00000000
1, 0.0275, 11, 0.04017473, 0.00715835, 0.98366874, -2.00737977, 3.03816962, 0.44757509, 0.00000000, 0.00000000, 0.00000000, -179.33866882, 1.85259962, 140.83911133, 0.01329713, -0.33516902, -0.94200170, 0.01085495, -0.00784641, 0.00437885, 0.01574195, 0.00000000, 0.00000000, 0.00000000, 0.00000000
1, 0.0300, 12, 0.03967753, 0.00714817, 0.98463875, -1.93726397, 2.96766949, 0.58766049, 0.00000000, 0.00000000, 0.00000000, -179.34356689, 1.84519780, 140.83755493, 0.01325044, -0.33518124, -0.94199872, 0.01079327, -0.00747834, 0.00430372, 0.01477713, 0.00000000, 0.00000000, 0.00000000, 0.00000000
1, 0.0325, 13, 0.04018050, 0.00862846, 0.98172814, -1.79413736, 2.69096398, 0.44861257, 0.00000000, 0.00000000, 0.00000000, -179.34808350, 1.83848369, 140.83634949, 0.01320837, -0.33519056, -0.94199663, 0.01073659, -0.00809842, 0.00274456, 0.01769239, 0.00000000, 0.00000000, 0.00000000, 0.00000000
1, 0.0350, 14, 0.04163991, 0.00961105, 0.98125786, -1.65220475, 2.69236612, 0.38061523, 0.00000000, 0.00000000, 0.00000000, -179.35224915, 1.83176410, 140.83532715, 0.01316521, -0.33519852, -0.94199497, 0.01068284, -0.00967506, 0.00168939, 0.01816720, 0.00000000, 0.00000000, 0.00000000, 0.00000000
1, 0.0375, 15, 0.04405180, 0.01106992, 0.98274589, -1.57858181, 2.41709042, 0.03139725, 0.00000000, 0.00000000, 0.00000000, -179.35620117, 1.82572234, 140.83517456, 0.01312708, -0.33519930, -0.94199580, 0.01063271, -0.01219233, 0.00016163, 0.01668328, 0.00000000, 0.00000000, 0.00000000, 0.00000000
1, 0.0400, 16, 0.04646730, 0.01106599, 0.98520052, -1.57510436, 2.07234764, -0.38878775, 0.00000000, 0.00000000, 0.00000000, -179.36010742, 1.82053101, 140.83609009, 0.01309592, -0.33519134, -0.94199961, 0.01058530, -0.01469840, 0.00009741, 0.01423234, 0.00000000, 0.00000000, 0.00000000, 0.00000000
1, 0.0425, 17, 0.04501186, 0.00910942, 0.98615289, -1.43091822, 1.86714756, -0.73680115, 0.00000000, 0.00000000, 0.00000000, -179.36363220, 1.81584311, 140.83787537, 0.01306785, -0.33517620, -0.94200587, 0.01054245, -0.01332474, 0.00199261, 0.01328319, 0.00000000, 0.00000000, 0.00000000, 0.00000000
1, 0.0450, 18, 0.04501370, 0.00520252, 0.98954219, -1.14582908, 1.73181117, -1.01296496, 0.00000000, 0.00000000, 0.00000000, -179.36640930, 1.81148589, 140.84036255, 0.01304040, -0.33515543, -0.94201404, 0.01050652, -0.01340259, 0.00585094, 0.00989687, 0.00000000, 0.00000000, 0.00000000, 0.00000000
1, 0.0725, 19, 0.02490271, -0.00574949, 1.01075387, -1.44790220, 2.54202151, 1.77786815, 0.00000000, 0.00000000, 0.00000000, -179.43096924, 1.75174189, 140.82298279, 0.01273655, -0.33529133, -0.94197738, 0.00980313, 0.00566618, 0.01567724, -0.01127052, 0.00000000, 0.00000000, 0.00000000, 0.00000000
1, 0.0750, 20, 0.02391480, -0.00332209, 1.00978434, -1.44632018, 2.12455583, 1.70617330, 0.00000000, 0.00000000, 0.00000000, -179.43472290, 1.74647319, 140.81864929, 0.01270383, -0.33532646, -0.94196582, 0.00975739, 0.00656218, 0.01318449, -0.01029748, 0.00000000, 0.00000000, 0.00000000, 0.00000000
1, 0.0775, 21, 0.02441741, -0.00233062, 1.00735819, -1.79730141, 1.56696630, 1.48989677, 0.00000000, 0.00000000, 0.00000000, -179.43931580, 1.74259269, 140.81489563, 0.01268510, -0.33535689, -0.94195569, 0.00970858, 0.00599187, 0.01211267, -0.00786847, 0.00000000, 0.00000000, 0.00000000, 0.00000000
1, 0.0800, 22, 0.02345121, -0.00232905, 1.00637639, -2.07788348, 1.28909838, 1.20602846, 0.00000000, 0.00000000, 0.00000000, -179.44461060, 1.73939967, 140.81182861, 0.01267407, -0.33538142, -0.94194776, 0.00965612, 0.00690237, 0.01201888, -0.00688410, 0.00000000, 0.00000000, 0.00000000, 0.00000000
1, 0.0825, 23, 0.02397588, -0.00327459, 1.00345349, -2.35891318, 0.87065458, 1.06104088, 0.00000000, 0.00000000, 0.00000000, -179.45059204, 1.73724878, 140.80915833, 0.01267366, -0.33540276, -0.94194072, 0.00960098, 0.00634018, 0.01286014, -0.00395912, 0.00000000, 0.00000000, 0.00000000, 0.00000000
1, 0.0850, 24, 0.02744037, -0.00565842, 1.00054705, -2.63997269, 0.31224385, 0.98517179, 0.00000000, 0.00000000, 0.00000000, -179.45726013, 1.73649180, 140.80668640, 0.01268677, -0.33542234, -0.94193417, 0.00954417, 0.00286248, 0.01512753, -0.00105107, 0.00000000, 0.00000000, 0.00000000, 0.00000000
1, 0.0875, 25, 0.02793358, -0.00467426, 0.99909490, -2.92119646, -0.03652070, 0.84050649, 0.00000000, 0.00000000, 0.00000000, -179.46463013, 1.73660266, 140.80459595, 0.01270907, -0.33543879, -0.94192851, 0.00948417, 0.00237121, 0.01401486, 0.00040215, 0.00000000, 0.00000000, 0.00000000, 0.00000000
1, 0.0900, 26, 0.02793358, -0.00467426, 0.99909490, -2.92119646, -0.03652070, 0.84050649, 0.00000000, 0.00000000, 0.00000000, -179.47200012, 1.73671365, 140.80249023, 0.01273137, -0.33545527, -0.94192296, 0.00942418, 0.00237314, 0.01388634, 0.00040334, 0.00000000, 0.00000000, 0.00000000, 0.00000000
1, 0.0925, 27, 0.03333333, -0.00315067, 0.99427581, -3.06305432, -0.66747004, 1.18465519, 0.00000000, 0.00000000, 0.00000000, -179.47973633, 1.73840940, 140.79953003, 0.01276775, -0.33547860, -0.94191474, 0.00936579, -0.00299703, 0.01222761, 0.00522274, 0.00000000, 0.00000000, 0.00000000, 0.00000000
1, 0.0950, 28, 0.03333333, -0.00315067, 0.99427581, -3.06305432, -0.66747004, 1.18465519, 0.00000000, 0.00000000, 0.00000000, -179.48748779, 1.74010479, 140.79660034, 0.01280412, -0.33550194, -0.94190651, 0.00930740, -0.00296745, 0.01209246, 0.00522304, 0.00000000, 0.00000000, 0.00000000, 0.00000000
1, 0.0975, 29, 0.03426369, 0.00561362, 0.99091882, -3.13599062, -1.09081161, 1.73994005, 0.00000000, 0.00000000, 0.00000000, -179.49546814, 1.74287021, 140.79226685, 0.01284985, -0.33553663, -0.94189411, 0.00925046, -0.00384956, 0.00318909, 0.00857973, 0.00000000, 0.00000000, 0.00000000, 0.00000000
1, 0.1000, 30, 0.03426369, 0.00561362, 0.99091882, -3.13599062, -1.09081161, 1.73994005, 0.00000000, 0.00000000, 0.00000000, -179.50343323, 1.74563515, 140.78791809, 0.01289557, -0.33557132, -0.94188172, 0.00919351, -0.00380133, 0.00305001, 0.00857955, 0.00000000, 0.00000000, 0.00000000, 0.00000000
1, 0.1025, 31, 0.03814254, 0.01196930, 0.98757321, -2.78535318, -1.16337776, 2.30213070, 0.00000000, 0.00000000, 0.00000000, -179.51057434, 1.74859309, 140.78219604, 0.01294033, -0.33561760, -0.94186509, 0.00914415, -0.00762858, -0.00343020, 0.01192462, 0.00000000, 0.00000000, 0.00000000, 0.00000000
1, 0.1050, 32, 0.03814254, 0.01196930, 0.98757321, -2.78535318, -1.16337776, 2.30213070, 0.00000000, 0.00000000, 0.00000000, -179.51770020, 1.75155020, 140.77645874, 0.01298509, -0.33566388, -0.94184846, 0.00909478, -0.00757699, -0.00355474, 0.01192409, 0.00000000, 0.00000000, 0.00000000, 0.00000000
1, 0.1075, 33, 0.03666392, 0.01683427, 0.98466396, -2.14647675, -1.29673088, 2.03037977, 0.00000000, 0.00000000, 0.00000000, -179.52323914, 1.75483465, 140.77140808, 0.01302786, -0.33570474, -0.94183362, 0.00905960, -0.00604108, -0.00851603, 0.01483244, 0.00000000, 0.00000000, 0.00000000, 0.00000000
1, 0.1100, 34, 0.03908556, 0.01878927, 0.98469347, -1.79076457, -1.08205724, 1.61718392, 0.00000000, 0.00000000, 0.00000000, -179.50967407, 1.77264905, 140.76779175, 0.01313425, -0.33573589, -0.94181949, 0.00922367, -0.00815194, -0.01023448, 0.01479137, 0.00000000, 0.00000000, 0.00000000, 0.00000000
1, 0.1200, 35, 0.03704694, 0.01480148, 0.99731970, -0.51972842, 0.46045810, 1.36110532, 0.00000000, 0.00000000, 0.00000000, -179.51896667, 1.77635849, 140.75480652, 0.01319091, -0.33584145, -0.94178164, 0.00915969, -0.00604861, -0.00640873, 0.00216448, 0.00000000, 0.00000000, 0.00000000, 0.00000000
1, 0.1225, 36, 0.03503900, 0.01425734, 1.00363219, -0.45235893, 1.22549868, 1.57481778, 0.00000000, 0.00000000, 0.00000000, -179.52020264, 1.77332783, 140.75083923, 0.01316936, -0.33587393, -0.94177055, 0.00914096, -0.00409354, -0.00588645, -0.00414622, 0.00000000, 0.00000000, 0.00000000, 0.00000000
1, 0.1250, 37, 0.03209341, 0.01422552, 1.00555658, -0.73777628, 1.78012705, 1.71338880, 0.00000000, 0.00000000, 0.00000000, -179.52218628, 1.76891363, 140.74652100, 0.01313854, -0.33590928, -0.94175863, 0.00911227, -0.00122496, -0.00588911, -0.00606787, 0.00000000, 0.00000000, 0.00000000, 0.00000000
1, 0.1275, 38, 0.02717314, 0.01416395, 1.00989997, -0.81178725, 2.19476104, 2.06325078, 0.00000000, 0.00000000, 0.00000000, -179.52436829, 1.76346970, 140.74131775, 0.01309980, -0.33595186, -0.94174433, 0.00907892, 0.00360035, -0.00586572, -0.01040810, 0.00000000, 0.00000000, 0.00000000, 0.00000000
1, 0.1300, 39, 0.02570432, 0.01317406, 1.01134408, -1.02425325, 2.26325011, 2.06092525, 0.00000000, 0.00000000, 0.00000000, -179.52709961, 1.75785482, 140.73611450, 0.01306122, -0.33599436, -0.94173002, 0.00904069, 0.00497121, -0.00492326, -0.01184875, 0.00000000, 0.00000000, 0.00000000, 0.00000000
1, 0.1325, 40, 0.02079201, 0.01116452, 1.01665163, -1.16740978, 2.39998865, 2.26909184, 0.00000000, 0.00000000, 0.00000000, -179.53019714, 1.75190163, 140.73039246, 0.01302092, -0.33604115, -0.94171441, 0.00899847, 0.00977967, -0.00296767, -0.01715255, 0.00000000, 0.00000000, 0.00000000, 0.00000000
1, 0.1350, 41, 0.01786486, 0.01065849, 1.01711249, -1.30786502, 2.47070098, 2.05836105, 0.00000000, 0.00000000, 0.00000000, -179.53361511, 1.74576724, 140.72518921, 0.01298015, -0.33608353, -0.94170016, 0.00895290, 0.01259980, -0.00252142, -0.01760983, 0.00000000, 0.00000000, 0.00000000, 0.00000000
1, 0.1375, 42, 0.01199140, 0.00914300, 1.02046680, -1.37726426, 1.98255038, 2.05522418, 0.00000000, 0.00000000, 0.00000000, -179.53723145, 1.74085259, 140.72000122, 0.01294992, -0.33612576, -0.94168597, 0.00890949, 0.01838752, -0.00106872, -0.02096105, 0.00000000, 0.00000000, 0.00000000, 0.00000000
1, 0.1400, 43, 0.00706280, 0.01054058, 1.02433050, -1.72902155, 1.70367706, 1.84023571, 0.00000000, 0.00000000, 0.00000000, -179.54167175, 1.73663032, 140.71537781, 0.01292795, -0.33616343, -0.94167334, 0.00886095, 0.02324247, -0.00254414, -0.02482176, 0.00000000, 0.00000000, 0.00000000, 0.00000000
1, 0.1425, 44, 0.00266791, 0.01051112, 1.02478194, -2.15237188, 1.42318940, 1.76388967, 0.00000000, 0.00000000, 0.00000000, -179.54719543, 1.73310769, 140.71093750, 0.01291484, -0.33619931, -0.94166112, 0.00880580, 0.02757590, -0.00261088, -0.02527052, 0.00000000, 0.00000000, 0.00000000, 0.00000000
1, 0.1450, 45, -0.00177723, 0.01239674, 1.02865207, -2.92828560, 1.00257790, 1.54296172, 0.00000000, 0.00000000, 0.00000000, -179.55464172, 1.73063147, 140.70706177, 0.01291602, -0.33623037, -0.94165063, 0.00873785, 0.03197784, -0.00462624, -0.02913845, 0.00000000, 0.00000000, 0.00000000, 0.00000000
1, 0.1475, 46, -0.00519795, 0.01041773, 1.03104973, -3.77434421, 0.51249927, 1.25106668, 0.00000000, 0.00000000, 0.00000000, -179.56416321, 1.72937429, 140.70391846, 0.01293341, -0.33625510, -0.94164240, 0.00865620, 0.03537664, -0.00281349, -0.03153408, 0.00000000, 0.00000000, 0.00000000, 0.00000000
1, 0.1500, 47, -0.00519397, 0.00944374, 1.03153181, -4.68938541, -0.46512088, 0.88627243, 0.00000000, 0.00000000, 0.00000000, -179.57595825, 1.73055387, 140.70170593, 0.01297754, -0.33627191, -0.94163668, 0.00856303, 0.03539323, -0.00204518, -0.03201527, 0.00000000, 0.00000000, 0.00000000, 0.00000000
1, 0.1525, 48, -0.00516685, 0.00799921, 1.03006339, -5.74449205, -1.51138687, 0.31010351, 0.00000000, 0.00000000, 0.00000000, -179.59033203, 1.73433781, 140.70095825, 0.01305079, -0.33627635, -0.94163495, 0.00845602, 0.03543212, -0.00085159, -0.03054714, 0.00000000, 0.00000000, 0.00000000, 0.00000000
1, 0.1550, 49, -0.00074122, 0.00512133, 1.02911031, -6.51840591, -2.34885550, -0.05228166, 0.00000000, 0.00000000, 0.00000000, -179.60662842, 1.74020922, 140.70114136, 0.01314685, -0.33627298, -0.94163585, 0.00833935, 0.03110891, 0.00174207, -0.02959514, 0.00000000, 0.00000000, 0.00000000, 0.00000000
1, 0.1575, 50, 0.00173756, 0.00174682, 1.02813900, -6.93998003, -3.11648774, -0.20064451, 0.00000000, 0.00000000, 0.00000000, -179.62396240, 1.74799681, 140.70169067, 0.01326175, -0.33626631, -0.94163769, 0.00821971, 0.02876600, 0.00481418, -0.02862591, 0.00000000, 0.00000000, 0.00000000, 0.00000000
1, 0.1600, 51, 0.00667775, -0.00306154, 1.02620602, -7.57418489, -3.60598540, -0.42012933, 0.00000000, 0.00000000, 0.00000000, -179.64886475, 1.74128497, 140.70262146, 0.01327974, -0.33625594, -0.94164312, 0.00799527, 0.02370872, 0.00918814, -0.02668650, 0.00000000, 0.00000000, 0.00000000, 0.00000000
1, 0.1625, 52, 0.01600379, -0.00735892, 1.02431107, -8.13972092, -4.09813070, -0.28991926, 0.00000000, 0.00000000, 0.00000000, -179.66920471, 1.75152552, 140.70339966, 0.01342359, -0.33624691, -0.94164550, 0.00785820, 0.01456133, 0.01313092, -0.02479488, 0.00000000, 0.00000000, 0.00000000, 0.00000000
1, 0.1650, 53, 0.02286337, -0.01071493, 1.02434921, -8.84651852, -4.38081360, -0.30003312, 0.00000000, 0.00000000, 0.00000000, -179.69128418, 1.76247358, 140.70420837, 0.01357844, -0.33623740, -0.94164789, 0.00770869, 0.00789274, 0.01610151, -0.02483679, 0.00000000, 0.00000000, 0.00000000, 0.00000000
1, 0.1675, 54, 0.02826787, -0.01553869, 1.02485514, -9.34429741, -4.24727631, 0.04324532, 0.00000000, 0.00000000, 0.00000000, -179.71464539, 1.77309227, 140.70416260, 0.01373424, -0.33623481, -0.94164789, 0.00754787, 0.00267348, 0.02051769, -0.02534641, 0.00000000, 0.00000000, 0.00000000, 0.00000000
1, 0.1700, 55, 0.02877303, -0.01747648, 1.02484930, -10.05476665, -4.11553764, 0.45363852, 0.00000000, 0.00000000, 0.00000000, -179.73982239, 1.78338635, 140.70306396, 0.01389262, -0.33624041, -0.94164485, 0.00737136, 0.00234790, 0.02201636, -0.02534401, 0.00000000, 0.00000000, 0.00000000, 0.00000000
1, 0.1725, 56, 0.03026063, -0.01647197, 1.02145708, -10.76498318, -3.77354336, 0.72547299, 0.00000000, 0.00000000, 0.00000000, -179.76678467, 1.79282796, 140.70129395, 0.01404923, -0.33625147, -0.94164014, 0.00717767, 0.00102500, 0.02054138, -0.02195490, 0.00000000, 0.00000000, 0.00000000, 0.00000000
1, 0.1750, 57, 0.02872380, -0.00774394, 1.02100229, -11.61757851, -3.57352757, 1.20418549, 0.00000000, 0.00000000, 0.00000000, -179.79592896, 1.80177331, 140.69831848, 0.01420805, -0.33627209, -0.94163203, 0.00696485, 0.00271789, 0.01130505, -0.02150303, 0.00000000, 0.00000000, 0.00000000, 0.00000000
1, 0.1775, 58, 0.02771455, -0.00240189, 1.01956034, -12.53923130, -3.23150635, 1.33384728, 0.00000000, 0.00000000, 0.00000000, -179.82737732, 1.80986285, 140.69500732, 0.01436663, -0.33629510, -0.94162303, 0.00673055, 0.00386825, 0.00541431, -0.02006370, 0.00000000, 0.00000000, 0.00000000, 0.00000000
1, 0.1800, 59, 0.02674830, 0.00395068, 1.01276648, -13.31820393, -3.30676651, 1.46334183, 0.00000000, 0.00000000, 0.00000000, -179.86077881, 1.81813979, 140.69136047, 0.01453249, -0.33632052, -0.94161320, 0.00648075, 0.00497889, -0.00152111, -0.01327289, 0.00000000, 0.00000000, 0.00000000, 0.00000000
1, 0.1825, 60, 0.02478766, 0.01028290, 1.00791264, -13.95443821, -3.51937389, 1.45443261, 0.00000000, 0.00000000, 0.00000000, -179.89578247, 1.82694578, 140.68774414, 0.01470739, -0.33634549, -0.94160336, 0.00621945, 0.00709315, -0.00846392, -0.00842267, 0.00000000, 0.00000000, 0.00000000, 0.00000000
1, 0.1850, 61, 0.02235259, 0.01564557, 1.00256300, -14.23379612, -3.93538237, 1.03039527, 0.00000000, 0.00000000, 0.00000000, -179.93145752, 1.83678854, 140.68516541, 0.01489281, -0.33636153, -0.94159633, 0.00595560, 0.00969991, -0.01444877, -0.00307751, 0.00000000, 0.00000000, 0.00000000, 0.00000000
1, 0.1875, 62, 0.01943662, 0.01759095, 0.99962723, -14.22893143, -4.62791252, 0.53883755, 0.00000000, 0.00000000, 0.00000000, -179.96707153, 1.84835958, 140.68383789, 0.01509237, -0.33636737, -0.94159269, 0.00569709, 0.01281773, -0.01701544, -0.00014782, 0.00000000, 0.00000000, 0.00000000, 0.00000000
1, 0.1900, 63, 0.01895858, 0.01808421, 0.99816483, -14.08355141, -5.11121941, 0.11977360, 0.00000000, 0.00000000, 0.00000000, 179.99783325, 1.86113799, 140.68354797, 0.01530073, -0.33636457, -0.94159186, 0.00544525, 0.01351869, -0.01812306, 0.00130767, 0.00000000, 0.00000000, 0.00000000, 0.00000000
1, 0.1925, 64, 0.01752628, 0.01565708, 0.99716675, -14.07971573, -5.73528767, -0.23193714, 0.00000000, 0.00000000, 0.00000000, 179.96264648, 1.87547648, 140.68411255, 0.01552184, -0.33635440, -0.94159329, 0.00519818, 0.01520110, -0.01630962, 0.00229740, 0.00000000, 0.00000000, 0.00000000, 0.00000000
1, 0.1950, 65, 0.02046574, 0.01372998, 0.99766767, -13.93842411, -5.80478191, -0.16073160, 0.00000000, 0.00000000, 0.00000000, 179.92781067, 1.88998890, 140.68449402, 0.01574335, -0.33634570, -0.94159400, 0.00495450, 0.01251479, -0.01499013, 0.00178748, 0.00000000, 0.00000000, 0.00000000, 0.00000000
1, 0.1975, 66, 0.02000904, 0.01130859, 0.99667752, -13.72657013, -5.80420065, -0.08832143, 0.00000000, 0.00000000, 0.00000000, 179.89350891, 1.90449989, 140.68470764, 0.01596330, -0.33633855, -0.94159412, 0.00471515, 0.01322462, -0.01316723, 0.00276840, 0.00000000, 0.00000000, 0.00000000, 0.00000000
1, 0.2000, 67, 0.02048239, 0.01081168, 0.99862695, -13.65803814, -5.45723486, 0.12345877, 0.00000000, 0.00000000, 0.00000000, 179.85934448, 1.91814208, 140.68437195, 0.01617563, -0.33633572, -0.94159263, 0.00447458, 0.01298924, -0.01326610, 0.00080967, 0.00000000, 0.00000000, 0.00000000, 0.00000000
1, 0.2025, 68, 0.02295284, 0.00889632, 0.99717593, -13.59011459, -5.04119825, 0.40532351, 0.00000000, 0.00000000, 0.00000000, 179.82534790, 1.93074250, 140.68331909, 0.01637895, -0.33633873, -0.94158918, 0.00423225, 0.01073859, -0.01194398, 0.00225163, 0.00000000, 0.00000000, 0.00000000, 0.00000000
1, 0.2050, 69, 0.02245565, 0.00888614, 0.99814600, -13.59414482, -4.34745216, 0.75735629, 0.00000000, 0.00000000, 0.00000000, 179.79129028, 1.94160485, 140.68138123, 0.01656808, -0.33634901, -0.94158322, 0.00398463, 0.01142525, -0.01252773, 0.00127339, 0.00000000, 0.00000000, 0.00000000, 0.00000000
1, 0.2075, 70, 0.02101104, 0.00889215, 0.99618626, -13.38448524, -3.86033416, 0.97154564, 0.00000000, 0.00000000, 0.00000000, 179.75775146, 1.95124590, 140.67890930, 0.01674568, -0.33636382, -0.94157588, 0.00373766, 0.01303803, -0.01311886, 0.00322503, 0.00000000, 0.00000000, 0.00000000, 0.00000000
1, 0.2100, 71, 0.02102187, 0.01085474, 0.99327409, -13.31530857, -3.44247198, 1.04412293, 0.00000000, 0.00000000, 0.00000000, 179.73130798, 1.95409477, 140.67637634, 0.01684662, -0.33638063, -0.94156879, 0.00352913, 0.01307689, -0.01554266, 0.00613332, 0.00000000, 0.00000000, 0.00000000, 0.00000000
1, 0.2125, 72, 0.02055720, 0.01038132, 0.99131972, -13.17515182, -2.95392466, 1.04814243, 0.00000000, 0.00000000, 0.00000000, 179.69828796, 1.96146643, 140.67370605, 0.01700407, -0.33639708, -0.94156104, 0.00327978, 0.01367015, -0.01564534, 0.00808060, 0.00000000, 0.00000000, 0.00000000, 0.00000000
1, 0.2150, 73, 0.01863782, 0.00892897, 0.98934871, -12.89331532, -2.67423010, 1.12272334, 0.00000000, 0.00000000, 0.00000000, 179.66595459, 1.96813607, 140.67085266, 0.01715370, -0.33641520, -0.94155270, 0.00303414, 0.01570587, -0.01475690, 0.01004440, 0.00000000, 0.00000000, 0.00000000, 0.00000000
1, 0.2175, 74, 0.01770415, 0.00846729, 0.98544252, -12.75266743, -2.81462169, 1.33313179, 0.00000000, 0.00000000, 0.00000000, 179.63395691, 1.97515225, 140.66748047, 0.01730521, -0.33643764, -0.94154269, 0.00279234, 0.01676193, -0.01485333, 0.01394290, 0.00000000, 0.00000000, 0.00000000, 0.00000000
1, 0.2200, 75, 0.01526658, 0.01040823, 0.98348463, -12.75205612, -2.88369203, 1.26304734, 0.00000000, 0.00000000, 0.00000000, 179.60195923, 1.98234081, 140.66427612, 0.01745812, -0.33645856, -0.94153297, 0.00255108, 0.01932488, -0.01735224, 0.01589292, 0.00000000, 0.00000000, 0.00000000, 0.00000000
1, 0.2225, 76, 0.01430942, 0.00992829, 0.98201334, -12.82078362, -3.16097879, 1.05158913, 0.00000000, 0.00000000, 0.00000000, 179.56982422, 1.99022353, 140.66157532, 0.01761721, -0.33647510, -0.94152474, 0.00231053, 0.02041954, -0.01743295, 0.01735514, 0.00000000, 0.00000000, 0.00000000, 0.00000000
1, 0.2250, 77, 0.01435604, 0.00947601, 0.97762805, -12.95826912, -3.85551882, 0.69779128, 0.00000000, 0.00000000, 0.00000000, 179.53735352, 1.99984872, 140.65975952, 0.01779157, -0.33648425, -0.94151878, 0.00207239, 0.02054081, -0.01754678, 0.02173025, 0.00000000, 0.00000000, 0.00000000, 0.00000000
1, 0.2275, 78, 0.01390042, 0.00852108, 0.97518432, -12.81330681, -4.33943605, 0.34848973, 0.00000000, 0.00000000, 0.00000000, 179.50529480, 2.01068926, 140.65881348, 0.01797478, -0.33648619, -0.94151503, 0.00184092, 0.02118552, -0.01715110, 0.02416265, 0.00000000, 0.00000000, 0.00000000, 0.00000000
1, 0.2300, 79, 0.01392498, 0.01000581, 0.97129577, -12.38434315, -5.17016125, 0.00110829, 0.00000000, 0.00000000, 0.00000000, 179.47431946, 2.02361465, 140.65867615, 0.01817189, -0.33648115, -0.94151348, 0.00162449, 0.02138640, -0.01917585, 0.02803856, 0.00000000, 0.00000000, 0.00000000, 0.00000000
1, 0.2325, 80, 0.01837339, 0.00616857, 0.96887678, -11.81238937, -5.92797852, -0.62323594, 0.00000000, 0.00000000, 0.00000000, 179.44483948, 2.03844857, 140.66011047, 0.01838035, -0.33646345, -0.94151610, 0.00142562, 0.01719674, -0.01585271, 0.03044356, 0.00000000, 0.00000000, 0.00000000, 0.00000000
1, 0.2350, 81, 0.01986753, 0.00326983, 0.96838695, -11.10091972, -6.26814651, -1.10435772, 0.00000000, 0.00000000, 0.00000000, 179.41717529, 2.05414605, 140.66271973, 0.01859055, -0.33643609, -0.94152194, 0.00124405, 0.01597639, -0.01343629, 0.03091884, 0.00000000, 0.00000000, 0.00000000, 0.00000000
1, 0.2375, 82, 0.02234339, 0.00233576, 0.96547991, -10.32049942, -6.26073885, -1.44346178, 0.00000000, 0.00000000, 0.00000000, 179.39151001, 2.06983423, 140.66615295, 0.01879486, -0.33640209, -0.94153029, 0.00107860, 0.01377416, -0.01294995, 0.03381127, 0.00000000, 0.00000000, 0.00000000, 0.00000000
1, 0.2400, 83, 0.02380209, 0.00234071, 0.96597868, -9.54188442, -5.90615320, -1.64143085, 0.00000000, 0.00000000, 0.00000000, 179.36779785, 2.08464336, 140.67010498, 0.01898617, -0.33636433, -0.94154012, 0.00092662, 0.01257376, -0.01336836, 0.03329874, 0.00000000, 0.00000000, 0.00000000, 0.00000000
1, 0.2425, 84, 0.02576090, -0.00008461, 0.96744323, -8.83560944, -5.13449860, -1.76858747, 0.00000000, 0.00000000, 0.00000000, 179.34585571, 2.09752846, 140.67437744, 0.01915644, -0.33632424, -0.94155115, 0.00078354, 0.01083969, -0.01132547, 0.03182162, 0.00000000, 0.00000000, 0.00000000, 0.00000000
1, 0.2450, 85, 0.02822088, -0.00347373, 0.96841979, -8.20228577, -3.87670445, -1.75484753, 0.00000000, 0.00000000, 0.00000000, 179.32551575, 2.10727048, 140.67864990, 0.01929623, -0.33628470, -0.94156253, 0.00064423, 0.00854962, -0.00829116, 0.03083474, 0.00000000, 0.00000000, 0.00000000, 0.00000000
1, 0.2475, 86, 0.03165105, -0.00783842, 0.97086036, -7.71353626, -2.27435255, -1.39245009, 0.00000000, 0.00000000, 0.00000000, 179.30635071, 2.11299753, 140.68206787, 0.01939952, -0.33625281, -0.94157189, 0.00050305, 0.00521934, -0.00426055, 0.02838648, 0.00000000, 0.00000000, 0.00000000, 0.00000000
1, 0.2500, 87, 0.03210489, -0.00932758, 0.97572678, -7.29554319, -0.67239732, -1.03093541, 0.00000000, 0.00000000, 0.00000000, 179.28820801, 2.11471009, 140.68463135, 0.01946684, -0.33622852, -0.94157922, 0.00035856, 0.00479537, -0.00308781, 0.02351505, 0.00000000, 0.00000000, 0.00000000, 0.00000000
1, 0.2525, 88, 0.03063138, -0.01032113, 0.97765803, -7.01890135, 0.71911854, -0.60238940, 0.00000000, 0.00000000, 0.00000000, 179.27070618, 2.11293101, 140.68617249, 0.01950355, -0.33621317, -0.94158399, 0.00020935, 0.00623785, -0.00239932, 0.02158112, 0.00000000, 0.00000000, 0.00000000, 0.00000000
1, 0.2550, 89, 0.02810961, -0.00795715, 0.98398131, -6.88274336, 2.04137969, -0.31545547, 0.00000000, 0.00000000, 0.00000000, 179.25354004, 2.10783815, 140.68701172, 0.01951210, -0.33620378, -0.94158721, 0.00005313, 0.00867080, -0.00506289, 0.01525736, 0.00000000, 0.00000000, 0.00000000, 0.00000000
1, 0.2575, 90, 0.02658947, -0.00849842, 0.99029779, -6.88590765, 2.87631154, -0.17206602, 0.00000000, 0.00000000, 0.00000000, 179.23634338, 2.10065389, 140.68753052, 0.01950352, -0.33619729, -0.94158959, -0.00010935, 0.01006563, -0.00482157, 0.00894141, 0.00000000, 0.00000000, 0.00000000, 0.00000000
1, 0.2600, 91, 0.02413133, -0.00901619, 0.99271053, -6.74414015, 3.08735967, -0.30885968, 0.00000000, 0.00000000, 0.00000000, 179.22302246, 2.08351207, 140.68844604, 0.01940177, -0.33618942, -0.94159448, -0.00026930, 0.01222480, -0.00453628, 0.00653654, 0.00000000, 0.00000000, 0.00000000, 0.00000000
1, 0.2625, 92, 0.02264878, -0.00952823, 0.99513119, -6.74330473, 3.08857727, -0.44838458, 0.00000000, 0.00000000, 0.00000000, 179.20620728, 2.07580709, 140.68968201, 0.01938778, -0.33617732, -0.94159901, -0.00043028, 0.01357295, -0.00431755, 0.00411677, 0.00000000, 0.00000000, 0.00000000, 0.00000000
1, 0.2650, 93, 0.02312105, -0.01149160, 0.99853426, -6.52919626, 2.88255644, -0.65599048, 0.00000000, 0.00000000, 0.00000000, 179.18995667, 2.06862378, 140.69142151, 0.01937646, -0.33616105, -0.94160497, -0.00058527, 0.01297539, -0.00263781, 0.00071412, 0.00000000, 0.00000000, 0.00000000, 0.00000000
1, 0.2675, 94, 0.02164683, -0.01346279, 1.00143445, -6.45749855, 2.39459062, -0.58759975, 0.00000000, 0.00000000, 0.00000000, 179.17385864, 2.06265903, 140.69297791, 0.01937463, -0.33614621, -0.94161022, -0.00073524, 0.01434557, -0.00094725, -0.00218630, 0.00000000, 0.00000000, 0.00000000, 0.00000000
1, 0.2700, 95, 0.02258847, -0.01494909, 1.00630486, -6.52648020, 1.90704870, -0.66049910, 0.00000000, 0.00000000, 0.00000000, 179.15760803, 2.05791616, 140.69470215, 0.01938333, -0.33612984, -0.94161576, -0.00088302, 0.01332121, 0.00025553, -0.00705779, 0.00000000, 0.00000000, 0.00000000, 0.00000000
1, 0.2725, 96, 0.02739997, -0.01594920, 1.01413119, -6.74003601, 1.76406538, -0.38474098, 0.00000000, 0.00000000, 0.00000000, 179.14080811, 2.05352068, 140.69572449, 0.01939652, -0.33611906, -0.94161922, -0.00103425, 0.00843304, 0.00096238, -0.01488584, 0.00000000, 0.00000000, 0.00000000, 0.00000000
1, 0.2750, 97, 0.03271081, -0.01400622, 1.01808023, -7.23584461, 1.34077895, -0.11380139, 0.00000000, 0.00000000, 0.00000000, 179.12271118, 2.05017376, 140.69606018, 0.01942204, -0.33611363, -0.94162047, -0.00119268, 0.00306382, -0.00129591, -0.01883752, 0.00000000, 0.00000000, 0.00000000, 0.00000000
1, 0.2775, 98, 0.03466420, -0.01741283, 1.02100074, -7.66186666, 1.26628458, 0.15963103, 0.00000000, 0.00000000, 0.00000000, 179.10354614, 2.04700232, 140.69570923, 0.01945221, -0.33611363, -0.94161963, -0.00135943, 0.00105511, 0.00177639, -0.02176118, 0.00000000, 0.00000000, 0.00000000, 0.00000000
1, 0.2800, 99, 0.03710106, -0.02033141, 1.02392781, -8.15925694, 1.26046395, 0.50226539, 0.00000000, 0.00000000, 0.00000000, 179.08311462, 2.04383159, 140.69451904, 0.01948613, -0.33612046, -0.94161624, -0.00153650, -0.00143705, 0.00433845, -0.02469201, 0.00000000, 0.00000000, 0.00000000, 0.00000000
1, 0.2825, 100, 0.03901901, -0.02083433, 1.02783692, -8.79729843, 1.39503455, 0.63449126, 0.00000000, 0.00000000, 0.00000000, 179.06106567, 2.04031897, 140.69297791, 0.01952196, -0.33612967, -0.94161177, -0.00172772, -0.00341626, 0.00445682, -0.02860510, 0.00000000, 0.00000000, 0.00000000, 0.00000000
1, 0.2850, 101, 0.03947826, -0.02134221, 1.03124738, -9.57459831, 1.32220972, 0.48493609, 0.00000000, 0.00000000, 0.00000000, 179.03707886, 2.03699374, 140.69181824, 0.01956500, -0.33613548, -0.94160843, -0.00193432, -0.00393351, 0.00454650, -0.03202045, 0.00000000, 0.00000000, 0.00000000, 0.00000000
1, 0.2875, 102, 0.04139259, -0.02038233, 1.03418982, -10.42368698, 1.31744969, 0.47434527, 0.00000000, 0.00000000, 0.00000000, 179.01098633, 2.03368068, 140.69068909, 0.01961435, -0.33614072, -0.94160509, -0.00215831, -0.00590563, 0.00313141, -0.03496856, 0.00000000, 0.00000000, 0.00000000, 0.00000000
1, 0.2900, 103, 0.04282560, -0.01697757, 1.03421879, -10.98916435, 1.10523903, 0.46631858, 0.00000000, 0.00000000, 0.00000000, 178.98347473, 2.03089738, 140.68957520, 0.01967222, -0.33614552, -0.94160163, -0.00239236, -0.00738719, -0.00075319, -0.03500421, 0.00000000, 0.00000000, 0.00000000, 0.00000000
1, 0.2925, 104, 0.04624923, -0.01743900, 1.03375697, -11.55444717, 0.82334924, 0.45796984, 0.00000000, 0.00000000, 0.00000000, 178.95454407, 2.02881885, 140.68846130, 0.01974001, -0.33614993, -0.94159794, -0.00263595, -0.01084708, -0.00079622, -0.03455032, 0.00000000, 0.00000000, 0.00000000, 0.00000000
1, 0.2950, 105, 0.05457690, -0.02078275, 1.03331995, -11.90690708, 0.19364515, 0.52042103, 0.00000000, 0.00000000, 0.00000000, 178.92472839, 2.02831101, 140.68716431, 0.01982333, -0.33615550, -0.94159353, -0.00288219, -0.01918361, 0.00202760, -0.03412247, 0.00000000, 0.00000000, 0.00000000, 0.00000000
1, 0.2975, 106, 0.05850968, -0.02415596, 1.03333449, -11.83626842, -0.36582619, 0.79777712, 0.00000000, 0.00000000, 0.00000000, 178.89508057, 2.02918744, 140.68515015, 0.01991760, -0.33616677, -0.94158667, -0.00312300, -0.02310109, 0.00488354, -0.03414744, 0.00000000, 0.00000000, 0.00000000, 0.00000000
1, 0.3000, 107, 0.06149903, -0.02848697, 1.03090131, -11.69403744, -0.92368335, 0.93649077, 0.00000000, 0.00000000, 0.00000000, 178.86575317, 2.03145051, 140.68276978, 0.02002227, -0.33618096, -0.94157863, -0.00335686, -0.02605098, 0.00870328, -0.03172565, 0.00000000, 0.00000000, 0.00000000, 0.00000000
1, 0.3025, 108, 0.06300798, -0.03039711, 1.02798140, -11.68869495, -1.33566999, 0.23693389, 0.00000000, 0.00000000, 0.00000000, 178.83650208, 2.03477740, 140.68211365, 0.02013542, -0.33618081, -0.94157547, -0.00358727, -0.02750190, 0.01010345, -0.02881796, 0.00000000, 0.00000000, 0.00000000, 0.00000000
1, 0.3050, 109, 0.06300798, -0.03039711, 1.02798140, -11.68869495, -1.33566999, 0.23693389, 0.00000000, 0.00000000, 0.00000000, 178.80725098, 2.03810358, 140.68145752, 0.02024857, -0.33618063, -0.94157213, -0.00381769, -0.02744388, 0.00959350, -0.02883065, 0.00000000, 0.00000000, 0.00000000, 0.00000000
1, 0.3075, 110, 0.06452990, -0.02741174, 1.01924217, -12.38783646, -1.95700765, -0.89098972, 0.00000000, 0.00000000, 0.00000000, 178.77636719, 2.04304218, 140.68357849, 0.02037970, -0.33615699, -0.94157678, -0.00405741, -0.02887966, 0.00606946, -0.02010572, 0.00000000, 0.00000000, 0.00000000, 0.00000000
1, 0.3100, 111, 0.06452990, -0.02741174, 1.01924217, -12.38783646, -1.95700765, -0.89098972, 0.00000000, 0.00000000, 0.00000000, 178.74295044, 2.06195831, 140.68569946, 0.02063310, -0.33613086, -0.94157958, -0.00427694, -0.02854973, 0.00548674, -0.02013022, 0.00000000, 0.00000000, 0.00000000, 0.00000000
1, 0.3125, 112, 0.06262640, -0.02640904, 1.01338744, -12.23930740, -2.36576581, -1.86783147, 0.00000000, 0.00000000, 0.00000000, 178.71250916, 2.06797504, 140.69023132, 0.02077162, -0.33608720, -0.94159108, -0.00451017, -0.02654127, 0.00395341, -0.01429105, 0.00000000, 0.00000000, 0.00000000, 0.00000000
1, 0.3150, 113, 0.06262640, -0.02640904, 1.01338744, -12.23930740, -2.36576581, -1.86783147, 0.00000000, 0.00000000, 0.00000000, 178.68206787, 2.07399416, 140.69477844, 0.02091015, -0.33604351, -0.94160241, -0.00474340, -0.02643630, 0.00342280, -0.01430685, 0.00000000, 0.00000000, 0.00000000, 0.00000000
1, 0.3175, 114, 0.06267706, -0.03418630, 1.01529634, -11.45888615, -2.35835814, -2.20693564, 0.00000000, 0.00000000, 0.00000000, 178.65361023, 2.08001685, 140.70014954, 0.02104283, -0.33599320, -0.94161630, -0.00496050, -0.02638191, 0.01070403, -0.01623118, 0.00000000, 0.00000000, 0.00000000, 0.00000000
1, 0.3200, 115, 0.06267706, -0.03418630, 1.01529634, -11.45888615, -2.35835814, -2.20693564, 0.00000000, 0.00000000, 0.00000000, 178.62516785, 2.08604217, 140.70553589, 0.02117551, -0.33594286, -0.94163013, -0.00517760, -0.02627682, 0.01020802, -0.01624674, 0.00000000, 0.00000000, 0.00000000, 0.00000000
1, 0.3225, 116, 0.05542304, -0.04443973, 1.01810777, -10.61273766, -1.44837880, -2.12239575, 0.00000000, 0.00000000, 0.00000000, 178.59883118, 2.08979082, 140.71075439, 0.02128329, -0.33589450, -0.94164383, -0.00538402, -0.01895741, 0.02000219, -0.01907164, 0.00000000, 0.00000000, 0.00000000, 0.00000000
1, 0.3250, 117, 0.05008655, -0.04933390, 1.01950085, -10.26198006, -0.96107697, -1.83667862, 0.00000000, 0.00000000, 0.00000000, 178.57333374, 2.09230590, 140.71528625, 0.02137845, -0.33585209, -0.94165552, -0.00558694, -0.01357706, 0.02445195, -0.02047741, 0.00000000, 0.00000000, 0.00000000, 0.00000000
1, 0.3275, 118, 0.04468318, -0.04939467, 1.02335334, -10.05328941, -0.12556413, -1.62087893, 0.00000000, 0.00000000, 0.00000000, 178.54835510, 2.09272146, 140.71932983, 0.02145489, -0.33581415, -0.94166607, -0.00579180, -0.00816643, 0.02407709, -0.02434111, 0.00000000, 0.00000000, 0.00000000, 0.00000000
1, 0.3300, 119, 0.04126608, -0.05283649, 1.02671742, -10.20005703, 0.70553005, -1.13044226, 0.00000000, 0.00000000, 0.00000000, 178.52294922, 2.09103084, 140.72219849, 0.02151527, -0.33578610, -0.94167346, -0.00600599, -0.00477882, 0.02707608, -0.02771527, 0.00000000, 0.00000000, 0.00000000, 0.00000000
1, 0.3325, 120, 0.03833132, -0.05090573, 1.02572954, -10.48753548, 1.39708161, -0.71217728, 0.00000000, 0.00000000, 0.00000000, 178.49679565, 2.08758569, 140.72407532, 0.02156349, -0.33576635, -0.94167787, -0.00623134, -0.00190415, 0.02468930, -0.02673709, 0.00000000, 0.00000000, 0.00000000, 0.00000000
1, 0.3350, 121, 0.03541755, -0.05237843, 1.02569854, -10.98547840, 1.74026525, -0.43769506, 0.00000000, 0.00000000, 0.00000000, 178.46937561, 2.08326530, 140.72528076, 0.02160827, -0.33575195, -0.94168043, -0.00646957, 0.00093427, 0.02568385, -0.02671605, 0.00000000, 0.00000000, 0.00000000, 0.00000000
1, 0.3375, 122, 0.03199642, -0.04849526, 1.02276862, -11.34313107, 2.22238278, -0.02127882, 0.00000000, 0.00000000, 0.00000000, 178.44104004, 2.07771325, 140.72547913, 0.02164570, -0.33574581, -0.94167989, -0.00671888, 0.00425856, 0.02130629, -0.02379591, 0.00000000, 0.00000000, 0.00000000, 0.00000000
1, 0.3400, 123, 0.02761848, -0.04460321, 1.01788282, -11.62838459, 2.56736541, 0.18608852, 0.00000000, 0.00000000, 0.00000000, 178.41195679, 2.07128453, 140.72518921, 0.02167811, -0.33574378, -0.94167811, -0.00697667, 0.00852437, 0.01690708, -0.01892013, 0.00000000, 0.00000000, 0.00000000, 0.00000000
1, 0.3425, 124, 0.02567990, -0.04020800, 1.01253211, -11.84088039, 2.49588728, 0.25288129, 0.00000000, 0.00000000, 0.00000000, 178.38233948, 2.06502938, 140.72474670, 0.02171353, -0.33574295, -0.94167554, -0.00723833, 0.01035385, 0.01199536, -0.01357991, 0.00000000, 0.00000000, 0.00000000, 0.00000000
1, 0.3450, 125, 0.02225550, -0.03437320, 1.00815105, -11.91099548, 2.56638741, 0.11279579, 0.00000000, 0.00000000, 0.00000000, 178.35253906, 2.05860829, 140.72465515, 0.02174803, -0.33573923, -0.94167405, -0.00750188, 0.01366625, 0.00564121, -0.00920952, 0.00000000, 0.00000000, 0.00000000, 0.00000000
1, 0.3475, 126, 0.01881808, -0.02708291, 1.00377727, -11.76661491, 2.29150867, -0.23553960, 0.00000000, 0.00000000, 0.00000000, 178.32316589, 2.05289912, 140.72540283, 0.02178718, -0.33572844, -0.94167495, -0.00776029, 0.01700409, -0.00216158, -0.00484699, 0.00000000, 0.00000000, 0.00000000, 0.00000000
1, 0.3500, 127, 0.01782762, -0.02172625, 1.00038743, -11.55022430, 2.01885247, -0.79227984, 0.00000000, 0.00000000, 0.00000000, 178.29435730, 2.04791284, 140.72752380, 0.02183043, -0.33570632, -0.94167960, -0.00801199, 0.01790757, -0.00802044, -0.00146896, 0.00000000, 0.00000000, 0.00000000, 0.00000000
1, 0.3525, 128, 0.01734774, -0.01732609, 0.99553561, -11.05135536, 2.09678721, -1.41364193, 0.00000000, 0.00000000, 0.00000000, 178.26686096, 2.04277897, 140.73121643, 0.02186854, -0.33567163, -0.94168901, -0.00825372, 0.01829792, -0.01290008, 0.00337178, 0.00000000, 0.00000000, 0.00000000, 0.00000000
1, 0.3550, 129, 0.01635513, -0.01490234, 0.99505299, -10.48337078, 2.31265092, -1.82419026, 0.00000000, 0.00000000, 0.00000000, 178.24082947, 2.03713894, 140.73596191, 0.02189813, -0.33562872, -0.94170159, -0.00848516, 0.01919214, -0.01577791, 0.00384390, 0.00000000, 0.00000000, 0.00000000, 0.00000000
1, 0.3575, 130, 0.01679013, -0.01005512, 0.99605536, -9.77525997, 2.87709475, -2.16160059, 0.00000000, 0.00000000, 0.00000000, 178.21658325, 2.03011680, 140.74159241, 0.02191100, -0.33557907, -0.94171691, -0.00870602, 0.01863466, -0.02104784, 0.00283277, 0.00000000, 0.00000000, 0.00000000, 0.00000000
1, 0.3600, 131, 0.01622206, -0.00425792, 0.99900264, -9.06759834, 3.30096221, -2.36013031, 0.00000000, 0.00000000, 0.00000000, 178.20880127, 2.01181650, 140.74801636, 0.02178296, -0.33552799, -0.94173706, -0.00882495, 0.01888354, -0.02698122, -0.00010747, 0.00000000, 0.00000000, 0.00000000, 0.00000000
1, 0.3625, 132, 0.01520453, -0.00380773, 1.00289297, -8.36070919, 4.00354624, -2.55737114, 0.00000000, 0.00000000, 0.00000000, 178.18812561, 2.00201368, 140.75473022, 0.02176240, -0.33547071, -0.94175607, -0.00902482, 0.01973008, -0.02779192, -0.00400305, 0.00000000, 0.00000000, 0.00000000, 0.00000000
1, 0.3650, 133, 0.01568871, -0.00234205, 1.00193036, -7.58300495, 4.98646021, -2.89196658, 0.00000000, 0.00000000, 0.00000000, 178.16943359, 1.98978400, 140.76235962, 0.02171601, -0.33540669, -0.94177812, -0.00921574, 0.01903259, -0.02958371, -0.00304335, 0.00000000, 0.00000000, 0.00000000, 0.00000000
1, 0.3675, 134, 0.01561170, 0.00150639, 1.00633276, -6.66662169, 6.38580751, -2.94381475, 0.00000000, 0.00000000, 0.00000000, 178.15304565, 1.97406387, 140.77023315, 0.02163418, -0.33534172, -0.94180125, -0.00939805, 0.01883539, -0.03371826, -0.00744545, 0.00000000, 0.00000000, 0.00000000, 0.00000000
1, 0.3700, 135, 0.01311811, 0.00389230, 1.00973415, -5.81935406, 7.64722681, -3.20647717, 0.00000000, 0.00000000, 0.00000000, 178.13877869, 1.95521533, 140.77886963, 0.02152029, -0.33527151, -0.94182712, -0.00957205, 0.02100020, -0.03635302, -0.01084358, 0.00000000, 0.00000000, 0.00000000, 0.00000000
1, 0.3725, 136, 0.01352420, 0.00773995, 1.01462746, -4.97392178, 9.11585808, -3.25888586, 0.00000000, 0.00000000, 0.00000000, 178.12664795, 1.93270302, 140.78776550, 0.02137004, -0.33520031, -0.94185424, -0.00973940, 0.02020143, -0.04041263, -0.01573044, 0.00000000, 0.00000000, 0.00000000, 0.00000000
1, 0.3750, 137, 0.01200259, 0.01159440, 1.01707006, -4.34140301, 10.51240063, -3.17473936, 0.00000000, 0.00000000, 0.00000000, 178.11608887, 1.90669620, 140.79655457, 0.02118645, -0.33513078, -0.94188136, -0.00990400, 0.02126939, -0.04445166, -0.01816404, 0.00000000, 0.00000000, 0.00000000, 0.00000000
1, 0.3775, 138, 0.01438699, 0.01400899, 1.02051091, -3.91970968, 11.83990097, -3.30285001, 0.00000000, 0.00000000, 0.00000000, 178.10659790, 1.87738490, 140.80580139, 0.02097253, -0.33505854, -0.94191015, -0.01006959, 0.01837369, -0.04703235, -0.02159328, 0.00000000, 0.00000000, 0.00000000, 0.00000000
1, 0.3800, 139, 0.01483430, 0.01642308, 1.02247512, -3.14358711, 13.24028111, -3.56575012, 0.00000000, 0.00000000, 0.00000000, 178.09907532, 1.84459758, 140.81581116, 0.02072421, -0.33498088, -0.94194144, -0.01022934, 0.01735443, -0.04957838, -0.02354342, 0.00000000, 0.00000000, 0.00000000, 0.00000000
1, 0.3825, 140, 0.01871718, 0.01545377, 1.02542365, -2.36833024, 14.49947834, -3.62000823, 0.00000000, 0.00000000, 0.00000000, 178.09347534, 1.80866969, 140.82606506, 0.02044437, -0.33490217, -0.94197392, -0.01038233, 0.01284481, -0.04870728, -0.02647508, 0.00000000, 0.00000000, 0.00000000, 0.00000000
1, 0.3850, 141, 0.02261345, 0.01351778, 1.02788031, -1.73411059, 16.03842545, -3.88402987, 0.00000000, 0.00000000, 0.00000000, 178.08947754, 1.76891923, 140.83709717, 0.02012832, -0.33481795, -0.94200903, -0.01053342, 0.00825510, -0.04684158, -0.02891243, 0.00000000, 0.00000000, 0.00000000, 0.00000000
1, 0.3875, 142, 0.02651298, 0.00963017, 1.03178823, -1.09908485, 17.43862152, -4.21845722, 0.00000000, 0.00000000, 0.00000000, 178.08711243, 1.72569835, 140.84910583, 0.01977892, -0.33472675, -0.94204712, -0.01068154, 0.00360157, -0.04299626, -0.03279883, 0.00000000, 0.00000000, 0.00000000, 0.00000000
1, 0.3900, 143, 0.03234201, 0.00817986, 1.03572416, -0.88821566, 18.69707870, -4.55882502, 0.00000000, 0.00000000, 0.00000000, 178.08526611, 1.67936254, 140.86206055, 0.01940220, -0.33462828, -0.94208819, -0.01083436, -0.00303581, -0.04157877, -0.03671176, 0.00000000, 0.00000000, 0.00000000, 0.00000000
1, 0.3925, 144, 0.03433554, 0.00187322, 1.03716898, -0.82069689, 20.16195297, -4.69070530, 0.00000000, 0.00000000, 0.00000000, 178.08360291, 1.62937784, 140.87547302, 0.01899491, -0.33452672, -0.94213068, -0.01099644, -0.00590137, -0.03530198, -0.03813244, 0.00000000, 0.00000000, 0.00000000, 0.00000000
1, 0.3950, 145, 0.03579317, 0.00041171, 1.03912139, -0.82215947, 21.13928604, -4.89548302, 0.00000000, 0.00000000, 0.00000000, 178.08193970, 1.57696855, 140.88948059, 0.01856758, -0.33442068, -0.94217485, -0.01116558, -0.00827336, -0.03387034, -0.04006029, 0.00000000, 0.00000000, 0.00000000, 0.00000000
1, 0.3975, 146, 0.03384851, -0.00350301, 1.04200804, -1.10668123, 21.97506905, -5.03467464, 0.00000000, 0.00000000, 0.00000000, 178.07957458, 1.52248347, 140.90390015, 0.01812518, -0.33431137, -0.94222009, -0.01134662, -0.00727929, -0.02999792, -0.04292256, 0.00000000, 0.00000000, 0.00000000, 0.00000000
1, 0.4000, 147, 0.03581563, -0.00738748, 1.04395223, -1.53161359, 22.11204720, -5.03932571, 0.00000000, 0.00000000, 0.00000000, 178.07611084, 1.46765661, 140.91833496, 0.01768306, -0.33420166, -0.94226509, -0.01153739, -0.01020301, -0.02617449, -0.04484386, 0.00000000, 0.00000000, 0.00000000, 0.00000000
1, 0.4025, 148, 0.03687151, -0.01318181, 1.04100883, -2.09719563, 22.38941383, -5.25438547, 0.00000000, 0.00000000, 0.00000000, 178.07124329, 1.41215634, 140.93334961, 0.01723941, -0.33408719, -0.94231141, -0.01174171, -0.01222724, -0.02046582, -0.04187901, 0.00000000, 0.00000000, 0.00000000, 0.00000000
1, 0.4050, 149, 0.03791258, -0.01996474, 1.04049551, -2.59046745, 22.10974884, -5.47113895, 0.00000000, 0.00000000, 0.00000000, 178.06513977, 1.35737479, 140.94889832, 0.01680516, -0.33396801, -0.94235885, -0.01195406, -0.01422415, -0.01379006, -0.04134608, 0.00000000, 0.00000000, 0.00000000, 0.00000000
1, 0.4075, 150, 0.03749060, -0.02626745, 1.03948593, -3.22492576, 21.40999794, -5.55206490, 0.00000000, 0.00000000, 0.00000000, 178.05744934, 1.30435002, 140.96458435, 0.01638993, -0.33384708, -0.94240618, -0.01217432, -0.01472737, -0.00762231, -0.04031963, 0.00000000, 0.00000000, 0.00000000, 0.00000000
1, 0.4100, 151, 0.03800986, -0.02819429, 1.03801906, -3.78923845, 20.77971077, -5.56202412, 0.00000000, 0.00000000, 0.00000000, 178.05009460, 1.25669265, 140.98027039, 0.01601776, -0.33372521, -0.94245315, -0.01237592, -0.01607820, -0.00582421, -0.03883863, 0.00000000, 0.00000000, 0.00000000, 0.00000000
1, 0.4125, 152, 0.03998853, -0.02913853, 1.03608203, -4.49267864, 19.59241486, -5.71584940, 0.00000000, 0.00000000, 0.00000000, 178.03921509, 1.20822823, 140.99623108, 0.01564917, -0.33360076, -0.94250029, -0.01260894, -0.01890254, -0.00507047, -0.03688980, 0.00000000, 0.00000000, 0.00000000, 0.00000000
1, 0.4350, 153, 0.02379309, -0.04847459, 1.01344872, -8.70607853, 8.21153069, -5.89105892, 0.00000000, 0.00000000, 0.00000000, 177.88784790, 0.92211163, 141.13619995, 0.01371891, -0.33247951, -0.94289613, -0.01470441, -0.00769991, 0.01162263, -0.01425767, 0.00000000, 0.00000000, 0.00000000, 0.00000000
1, 0.4375, 154, 0.01992721, -0.04993477, 1.01097500, -9.19966507, 7.44167471, -5.83101749, 0.00000000, 0.00000000, 0.00000000, 177.86508179, 0.90406072, 141.15145874, 0.01363443, -0.33235443, -0.94293767, -0.01494589, -0.00414904, 0.01268577, -0.01179356, 0.00000000, 0.00000000, 0.00000000, 0.00000000
1, 0.4400, 155, 0.01802698, -0.05088368, 1.00657153, -9.62262821, 7.02183008, -5.90800714, 0.00000000, 0.00000000, 0.00000000, 177.84127808, 0.88707149, 141.16687012, 0.01356168, -0.33222771, -0.94297934, -0.01519300, -0.00254529, 0.01321919, -0.00740105, 0.00000000, 0.00000000, 0.00000000, 0.00000000
1, 0.4425, 156, 0.01612134, -0.05281390, 1.00362396, -10.04742432, 6.80919456, -5.77474451, 0.00000000, 0.00000000, 0.00000000, 177.81639099, 0.87060785, 141.18194580, 0.01349633, -0.33210367, -0.94301987, -0.01544734, -0.00092695, 0.01471524, -0.00446540, 0.00000000, 0.00000000, 0.00000000, 0.00000000
1, 0.4450, 157, 0.01323682, -0.05279822, 0.99921757, -10.61331844, 6.59637499, -5.71300840, 0.00000000, 0.00000000, 0.00000000, 177.79006958, 0.85467631, 141.19685364, 0.01343945, -0.33198076, -0.94305962, -0.01571181, 0.00167953, 0.01424061, -0.00007260, 0.00000000, 0.00000000, 0.00000000, 0.00000000
1, 0.4475, 158, 0.01277686, -0.05326799, 0.99677622, -11.10887527, 6.38334322, -5.58062744, 0.00000000, 0.00000000, 0.00000000, 177.76252747, 0.83927125, 141.21141052, 0.01339048, -0.33186048, -0.94309801, -0.01598496, 0.00187066, 0.01422968, 0.00235409, 0.00000000, 0.00000000, 0.00000000, 0.00000000
1, 0.4500, 159, 0.01133225, -0.05326198, 0.99481648, -11.67579937, 6.23898602, -5.37904453, 0.00000000, 0.00000000, 0.00000000, 177.73353577, 0.82421434, 141.22546387, 0.01334852, -0.33174422, -0.94313473, -0.01626879, 0.00305250, 0.01371807, 0.00429791, 0.00000000, 0.00000000, 0.00000000, 0.00000000
1, 0.4525, 160, 0.00792379, -0.05132312, 0.99236375, -12.24256134, 5.88498163, -5.10866499, 0.00000000, 0.00000000, 0.00000000, 177.70310974, 0.81002212, 141.23881531, 0.01331785, -0.33163342, -0.94316894, -0.01656180, 0.00621329, 0.01124868, 0.00673294, 0.00000000, 0.00000000, 0.00000000, 0.00000000
1, 0.4550, 161, 0.00452109, -0.04791415, 0.98797035, -12.66864109, 5.53055334, -4.69699669, 0.00000000, 0.00000000, 0.00000000, 177.67163086, 0.79668087, 141.25111389, 0.01329741, -0.33153108, -0.94319993, -0.01686113, 0.00938316, 0.00729032, 0.01110733, 0.00000000, 0.00000000, 0.00000000, 0.00000000
1, 0.4575, 162, 0.00064796, -0.04644872, 0.98356330, -12.95179176, 4.96909761, -4.42405319, 0.00000000, 0.00000000, 0.00000000, 177.63940430, 0.78472090, 141.26268005, 0.01329046, -0.33143446, -0.94322860, -0.01716230, 0.01304757, 0.00526295, 0.01549441, 0.00000000, 0.00000000, 0.00000000, 0.00000000
1, 0.4600, 163, -0.00271965, -0.04643225, 0.97866583, -12.95171642, 4.33955097, -4.14790201, 0.00000000, 0.00000000, 0.00000000, 177.60508728, 0.76828724, 141.27345276, 0.01325282, -0.33134484, -0.94325453, -0.01749361, 0.01612839, 0.00464789, 0.02037090, 0.00000000, 0.00000000, 0.00000000, 0.00000000
1, 0.4625, 164, -0.00610463, -0.04447513, 0.97377813, -13.02217484, 3.77989578, -3.94207358, 0.00000000, 0.00000000, 0.00000000, 177.57266235, 0.75926042, 141.28369141, 0.01327068, -0.33125851, -0.94327903, -0.01778777, 0.01935583, 0.00212542, 0.02523690, 0.00000000, 0.00000000, 0.00000000, 0.00000000
1, 0.4650, 165, -0.00752539, -0.04396203, 0.96889895, -13.02187538, 3.22063661, -3.73536229, 0.00000000, 0.00000000, 0.00000000, 177.54023743, 0.75161439, 141.29336548, 0.01329996, -0.33117661, -0.94330192, -0.01807794, 0.02064315, 0.00104685, 0.03009368, 0.00000000, 0.00000000, 0.00000000, 0.00000000
1, 0.4675, 166, -0.00848004, -0.04102023, 0.96403587, -13.02138329, 2.59169841, -3.52897406, 0.00000000, 0.00000000, 0.00000000, 177.50779724, 0.74552214, 141.30245972, 0.01334209, -0.33109915, -0.94332290, -0.01836362, 0.02149149, -0.00246052, 0.03493357, 0.00000000, 0.00000000, 0.00000000, 0.00000000
1, 0.4700, 167, -0.00850175, -0.03859441, 0.96404809, -13.23110390, 1.82464719, -3.60492635, 0.00000000, 0.00000000, 0.00000000, 177.47483826, 0.74135941, 141.31166077, 0.01340156, -0.33102039, -0.94334418, -0.01864805, 0.02144055, -0.00546102, 0.03489722, 0.00000000, 0.00000000, 0.00000000, 0.00000000
1, 0.4725, 168, -0.00559017, -0.03370362, 0.96117431, -13.51316357, 1.47466505, -3.61006689, 0.00000000, 0.00000000, 0.00000000, 177.44117737, 0.73807675, 141.32084656, 0.01347027, -0.33094150, -0.94336510, -0.01893575, 0.01847168, -0.01093877, 0.03774565, 0.00000000, 0.00000000, 0.00000000, 0.00000000
1, 0.4750, 169, -0.00653109, -0.03123968, 0.95533478, -13.65367985, 1.26544309, -3.68256068, 0.00000000, 0.00000000, 0.00000000, 177.40716553, 0.73533028, 141.33018494, 0.01354432, -0.33086115, -0.94338638, -0.01922481, 0.01936467, -0.01399575, 0.04355913, 0.00000000, 0.00000000, 0.00000000, 0.00000000
1, 0.4775, 170, -0.00843388, -0.02925934, 0.94851106, -13.58172703, 0.98773205, -3.75272822, 0.00000000, 0.00000000, 0.00000000, 177.37332153, 0.73329073, 141.33966064, 0.01362361, -0.33077946, -0.94340801, -0.01951036, 0.02123186, -0.01656594, 0.05035645, 0.00000000, 0.00000000, 0.00000000, 0.00000000
1, 0.4800, 171, -0.00839124, -0.02873763, 0.94364369, -13.08629131, 0.64089566, -3.60863614, 0.00000000, 0.00000000, 0.00000000, 177.34072876, 0.73210621, 141.34875488, 0.01370639, -0.33070102, -0.94342870, -0.01978325, 0.02116855, -0.01765598, 0.05519785, 0.00000000, 0.00000000, 0.00000000, 0.00000000
1, 0.4825, 172, -0.00784272, -0.02917608, 0.93780136, -12.24045658, 1.06068623, -3.24730039, 0.00000000, 0.00000000, 0.00000000, 177.31024170, 0.72983629, 141.35699463, 0.01377427, -0.33063006, -0.94344711, -0.02004187, 0.02058042, -0.01774919, 0.06101580, 0.00000000, 0.00000000, 0.00000000, 0.00000000
1, 0.4850, 173, -0.00785431, -0.02576531, 0.93587053, -11.32489395, 1.54933512, -2.74523568, 0.00000000, 0.00000000, 0.00000000, 177.28201294, 0.72629112, 141.36404419, 0.01382527, -0.33056948, -0.94346243, -0.02028532, 0.02053014, -0.02165199, 0.06292422, 0.00000000, 0.00000000, 0.00000000, 0.00000000
1, 0.4875, 174, -0.00984820, -0.01994748, 0.93491012, -10.47886467, 1.89944649, -2.38422251, 0.00000000, 0.00000000, 0.00000000, 177.25588989, 0.72183198, 141.37020874, 0.01386280, -0.33051640, -0.94347554, -0.02051399, 0.02244621, -0.02792518, 0.06386401, 0.00000000, 0.00000000, 0.00000000, 0.00000000
1, 0.4900, 175, -0.01084116, -0.01801256, 0.93491203, -9.77593231, 2.66623092, -1.95327926, 0.00000000, 0.00000000, 0.00000000, 177.23152161, 0.71540880, 141.37541199, 0.01387929, -0.33047202, -0.94348598, -0.02073385, 0.02332707, -0.03028507, 0.06384303, 0.00000000, 0.00000000, 0.00000000, 0.00000000
1, 0.4925, 176, -0.00937669, -0.01653749, 0.93347025, -9.14105511, 3.36659193, -1.94211566, 0.00000000, 0.00000000, 0.00000000, 177.20872498, 0.70723766, 141.38066101, 0.01387677, -0.33042777, -0.94349688, -0.02094569, 0.02172000, -0.03215742, 0.06526710, 0.00000000, 0.00000000, 0.00000000, 0.00000000
1, 0.4950, 177, -0.00936331, -0.01750417, 0.93297839, -8.36424637, 4.06835461, -1.99894941, 0.00000000, 0.00000000, 0.00000000, 177.18788147, 0.69732332, 141.38615417, 0.01385424, -0.33038223, -0.94350868, -0.02114658, 0.02153359, -0.03155418, 0.06574346, 0.00000000, 0.00000000, 0.00000000, 0.00000000
1, 0.4975, 178, -0.01178351, -0.01750390, 0.93101072, -7.58560181, 4.56290674, -2.26603675, 0.00000000, 0.00000000, 0.00000000, 177.16899109, 0.68620890, 141.39237976, 0.01381604, -0.33033118, -0.94352287, -0.02133493, 0.02375983, -0.03188381, 0.06769712, 0.00000000, 0.00000000, 0.00000000, 0.00000000
1, 0.5000, 179, -0.01179000, -0.01995165, 0.93392038, -6.80492830, 4.78056955, -2.74369955, 0.00000000, 0.00000000, 0.00000000, 177.15206909, 0.67461216, 141.39982605, 0.01376795, -0.33027041, -0.94354093, -0.02150863, 0.02356393, -0.02973119, 0.06477542, 0.00000000, 0.00000000, 0.00000000, 0.00000000
1, 0.5025, 180, -0.01568442, -0.02192256, 0.93485302, -5.88396215, 5.13716555, -3.07942843, 0.00000000, 0.00000000, 0.00000000, 177.13746643, 0.66216874, 141.40814209, 0.01370605, -0.33020282, -0.94356179, -0.02166584, 0.02724119, -0.02801510, 0.06383246, 0.00000000, 0.00000000, 0.00000000, 0.00000000
1, 0.5050, 181, -0.01323854, -0.02532265, 0.93729055, -4.82087040, 5.42548418, -3.48347640, 0.00000000, 0.00000000, 0.00000000, 177.12551880, 0.64905775, 141.41751099, 0.01363074, -0.33012712, -0.94358623, -0.02180312, 0.02456649, -0.02482335, 0.06138714, 0.00000000, 0.00000000, 0.00000000, 0.00000000
1, 0.5075, 182, -0.01233699, -0.03025992, 0.94944859, -3.96966243, 5.57325602, -3.89081645, 0.00000000, 0.00000000, 0.00000000, 177.11570740, 0.63563102, 141.42793274, 0.01354645, -0.33004317, -0.94361401, -0.02192382, 0.02343061, -0.02005716, 0.04922314, 0.00000000, 0.00000000, 0.00000000, 0.00000000
1, 0.5100, 183, -0.01431709, -0.03127095, 0.95332372, -3.33133841, 5.78890657, -4.23071909, 0.00000000, 0.00000000, 0.00000000, 177.11726379, 0.60745347, 141.43914795, 0.01330782, -0.32995728, -0.94364578, -0.02199356, 0.02491896, -0.01901934, 0.04535467, 0.00000000, 0.00000000, 0.00000000, 0.00000000
1, 0.5125, 184, -0.01378767, -0.03856384, 0.95572597, -2.62251091, 5.79470015, -4.43118048, 0.00000000, 0.00000000, 0.00000000, 177.11082458, 0.59354299, 141.45095825, 0.01320953, -0.32986253, -0.94367820, -0.02208798, 0.02414677, -0.01183871, 0.04294945, 0.00000000, 0.00000000, 0.00000000, 0.00000000
1, 0.5150, 185, -0.01567376, -0.04585280, 0.95567352, -1.98527682, 5.79887867, -4.49300051, 0.00000000, 0.00000000, 0.00000000, 177.10598755, 0.57963091, 141.46289062, 0.01310659, -0.32976663, -0.94371116, -0.02216929, 0.02579005, -0.00463425, 0.04299986, 0.00000000, 0.00000000, 0.00000000, 0.00000000
1, 0.5175, 186, -0.01175109, -0.05021096, 0.95763105, -1.20669174, 6.01349735, -4.62185001, 0.00000000, 0.00000000, 0.00000000, 177.10308838, 0.56520021, 141.47520447, 0.01299370, -0.32966819, -0.94374555, -0.02223608, 0.02161554, -0.00032666, 0.04104239, 0.00000000, 0.00000000, 0.00000000, 0.00000000
1, 0.5200, 187, -0.01175109, -0.05021096, 0.95763105, -1.20669174, 6.01349735, -4.62185001, 0.00000000, 0.00000000, 0.00000000, 177.10020447, 0.55076998, 141.48750305, 0.01288081, -0.32956979, -0.94377989, -0.02230286, 0.02136369, -0.00037728, 0.04104234, 0.00000000, 0.00000000, 0.00000000, 0.00000000
1, 0.5225, 188, -0.00638816, -0.05408996, 0.96155071, 1.12179518, 6.85664845, -3.89123702, 0.00000000, 0.00000000, 0.00000000, 177.10308838, 0.53414214, 141.49809265, 0.01273346, -0.32948667, -0.94381034, -0.02232797, 0.01571056, 0.00355222, 0.03712792, 0.00000000, 0.00000000, 0.00000000, 0.00000000
1, 0.5250, 189, -0.00638816, -0.05408996, 0.96155071, 1.12179518, 6.85664845, -3.89123702, 0.00000000, 0.00000000, 0.00000000, 177.10600281, 0.51751387, 141.50865173, 0.01258611, -0.32940349, -0.94384074, -0.02235308, 0.01542035, 0.00360266, 0.03713310, 0.00000000, 0.00000000, 0.00000000, 0.00000000
1, 0.5275, 190, 0.00046636, -0.05793845, 0.96256036, 1.89129102, 8.52722359, -3.17617512, 0.00000000, 0.00000000, 0.00000000, 177.11080933, 0.49662375, 141.51766968, 0.01239848, -0.32933441, -0.94386679, -0.02237454, 0.00820125, 0.00753478, 0.03613096, 0.00000000, 0.00000000, 0.00000000, 0.00000000
1, 0.5300, 191, 0.00046636, -0.05793845, 0.96256036, 1.89129102, 8.52722359, -3.17617512, 0.00000000, 0.00000000, 0.00000000, 177.11561584, 0.47573277, 141.52667236, 0.01221085, -0.32926533, -0.94389284, -0.02239601, 0.00783665, 0.00761837, 0.03613830, 0.00000000, 0.00000000, 0.00000000, 0.00000000
1, 0.5325, 192, 0.01218947, -0.06176555, 0.96458346, 2.80379415, 9.36122322, -2.32368779, 0.00000000, 0.00000000, 0.00000000, 177.12268066, 0.45265135, 141.53366089, 0.01199907, -0.32921365, -0.94391340, -0.02240490, -0.00428930, 0.01156848, 0.03412456, 0.00000000, 0.00000000, 0.00000000, 0.00000000
1, 0.5350, 193, 0.01218947, -0.06176555, 0.96458346, 2.80379415, 9.36122322, -2.32368779, 0.00000000, 0.00000000, 0.00000000, 177.12974548, 0.42956904, 141.54063416, 0.01178729, -0.32916194, -0.94393390, -0.02241378, -0.00469215, 0.01169144, 0.03413380, 0.00000000, 0.00000000, 0.00000000, 0.00000000
1, 0.5375, 194, 0.02148661, -0.06706249, 0.96657944, 3.78827858, 10.05747986, -1.61048639, 0.00000000, 0.00000000, 0.00000000, 177.13925171, 0.40465811, 141.54591370, 0.01155376, -0.32912484, -0.94394988, -0.02240758, -0.01442406, 0.01715397, 0.03214938, 0.00000000, 0.00000000, 0.00000000, 0.00000000
1, 0.5400, 195, 0.02491280, -0.07045319, 0.96853787, 4.28149033, 10.05721188, -1.25549603, 0.00000000, 0.00000000, 0.00000000, 177.14999390, 0.37970269, 141.55030823, 0.01131651, -0.32909513, -0.94396353, -0.02239131, -0.01828579, 0.02073163, 0.03020317, 0.00000000, 0.00000000, 0.00000000, 0.00000000
1, 0.5425, 196, 0.02491244, -0.07094201, 0.96902239, 4.84549046, 10.19730854, -0.96874142, 0.00000000, 0.00000000, 0.00000000, 177.16212463, 0.35436097, 141.55398560, 0.01107219, -0.32907137, -0.94397527, -0.02236449, -0.01872772, 0.02143186, 0.02973217, 0.00000000, 0.00000000, 0.00000000, 0.00000000
1, 0.5450, 197, 0.02681701, -0.07047825, 0.97342348, 5.26842308, 10.47718716, -0.82263291, 0.00000000, 0.00000000, 0.00000000, 177.17532349, 0.32830158, 141.55732727, 0.01081900, -0.32905060, -0.94398630, -0.02233101, -0.02108711, 0.02119793, 0.02534509, 0.00000000, 0.00000000, 0.00000000, 0.00000000
1, 0.5475, 198, 0.02729036, -0.07097517, 0.97537291, 5.69029522, 10.68556023, -0.46755901, 0.00000000, 0.00000000, 0.00000000, 177.18955994, 0.30167753, 141.55981445, 0.01055831, -0.32903707, -0.94399488, -0.02229042, -0.02202512, 0.02194294, 0.02341038, 0.00000000, 0.00000000, 0.00000000, 0.00000000
1, 0.5500, 199, 0.02922205, -0.07195594, 0.97830570, 6.04282856, 10.68571758, -0.25385875, 0.00000000, 0.00000000, 0.00000000, 177.20468140, 0.27502629, 141.56175232, 0.01029499, -0.32902807, -0.94400209, -0.02224262, -0.02442196, 0.02318712, 0.02049292, 0.00000000, 0.00000000, 0.00000000, 0.00000000
1, 0.5525, 200, 0.02967298, -0.07100467, 0.98123646, 6.39642096, 10.75738049, -0.24912387, 0.00000000, 0.00000000, 0.00000000, 177.22067261, 0.24819496, 141.56369019, 0.01002765, -0.32901913, -0.94400930, -0.02218805, -0.02534117, 0.02251466, 0.01757771, 0.00000000, 0.00000000, 0.00000000, 0.00000000
1, 0.5550, 201, 0.02914218, -0.07201806, 0.98658442, 6.67881012, 10.68806934, -0.10639073, 0.00000000, 0.00000000, 0.00000000, 177.23738098, 0.22151908, 141.56524658, 0.00975964, -0.32901320, -0.94401562, -0.02212719, -0.02527595, 0.02381913, 0.01224589, 0.00000000, 0.00000000, 0.00000000, 0.00000000
1, 0.5575, 202, 0.02814130, -0.07448617, 0.99143422, 6.67819786, 10.75714016, -0.03630622, 0.00000000, 0.00000000, 0.00000000, 177.25407410, 0.19466169, 141.56661987, 0.00949018, -0.32900870, -0.94402140, -0.02206686, -0.02474383, 0.02657831, 0.00741166, 0.00000000, 0.00000000, 0.00000000, 0.00000000
1, 0.5600, 203, 0.02860454, -0.07596803, 0.99532664, 6.60679865, 10.68584633, 0.10201412, 0.00000000, 0.00000000, 0.00000000, 177.25737000, 0.17989412, 141.56782532, 0.00935885, -0.32900199, -0.94402456, -0.02208227, -0.02546480, 0.02811745, 0.00352299, 0.00000000, 0.00000000, 0.00000000, 0.00000000
1, 0.5625, 204, 0.02760402, -0.07794730, 0.99969178, 6.25523615, 10.33729458, -0.11329637, 0.00000000, 0.00000000, 0.00000000, 177.27301025, 0.15409385, 141.56933594, 0.00910110, -0.32899597, -0.94403052, -0.02202762, -0.02491458, 0.03036936, -0.00082791, 0.00000000, 0.00000000, 0.00000000, 0.00000000
1, 0.5650, 205, 0.02511732, -0.07897583, 1.00551105, 6.18467188, 10.26721764, -0.11450099, 0.00000000, 0.00000000, 0.00000000, 177.28846741, 0.12846842, 141.57084656, 0.00884531, -0.32898989, -0.94403636, -0.02197392, -0.02287513, 0.03166746, -0.00663328, 0.00000000, 0.00000000, 0.00000000, 0.00000000
1, 0.5675, 206, 0.02461870, -0.08094128, 1.00841916, 5.76290369, 9.56926441, -0.26254174, 0.00000000, 0.00000000, 0.00000000, 177.30287170, 0.10460293, 141.57263184, 0.00860699, -0.32898101, -0.94404286, -0.02192386, -0.02279304, 0.03388410, -0.00952858, 0.00000000, 0.00000000, 0.00000000, 0.00000000
1, 0.5700, 207, 0.02361853, -0.08243175, 1.01229978, 5.19997883, 8.59119320, -0.34387347, 0.00000000, 0.00000000, 0.00000000, 177.31588745, 0.08318904, 141.57450867, 0.00839289, -0.32897076, -0.94404930, -0.02187835, -0.02216661, 0.03560123, -0.01339805, 0.00000000, 0.00000000, 0.00000000, 0.00000000
1, 0.5725, 208, 0.02214176, -0.08147367, 1.01277983, 4.70681095, 7.82194519, -0.35359395, 0.00000000, 0.00000000, 0.00000000, 177.32765198, 0.06369682, 141.57629395, 0.00819817, -0.32896063, -0.94405556, -0.02183749, -0.02103004, 0.03484833, -0.01386810, 0.00000000, 0.00000000, 0.00000000, 0.00000000
1, 0.5750, 209, 0.02115676, -0.08148672, 1.01374590, 4.07374048, 6.77440691, -0.50589269, 0.00000000, 0.00000000, 0.00000000, 177.33782959, 0.04683815, 141.57835388, 0.00802965, -0.32894769, -0.94406235, -0.02180211, -0.02033929, 0.03503895, -0.01482559, 0.00000000, 0.00000000, 0.00000000, 0.00000000
1, 0.5775, 210, 0.02162720, -0.07954319, 1.01375973, 3.58260298, 5.72827005, -0.72618878, 0.00000000, 0.00000000, 0.00000000, 177.34680176, 0.03261705, 141.58082581, 0.00788631, -0.32893065, -0.94407028, -0.02176930, -0.02105793, 0.03325160, -0.01483190, 0.00000000, 0.00000000, 0.00000000, 0.00000000
1, 0.5800, 211, 0.02161852, -0.07857285, 1.01376462, 2.94989061, 4.40140581, -0.81001323, 0.00000000, 0.00000000, 0.00000000, 177.35417175, 0.02171894, 141.58335876, 0.00777487, -0.32891238, -0.94407827, -0.02173999, -0.02123946, 0.03240985, -0.01483065, 0.00000000, 0.00000000, 0.00000000, 0.00000000
1, 0.5825, 212, 0.02109926, -0.07664603, 1.01523125, 2.45814109, 3.42434001, -0.96022481, 0.00000000, 0.00000000, 0.00000000, 177.36032104, 0.01327784, 141.58615112, 0.00768716, -0.32889137, -0.94408679, -0.02171377, -0.02086752, 0.03059019, -0.01629240, 0.00000000, 0.00000000, 0.00000000, 0.00000000
1, 0.5850, 213, 0.02011605, -0.07421497, 1.01377475, 1.82790625, 1.96116126, -1.39350569, 0.00000000, 0.00000000, 0.00000000, 177.36489868, 0.00854051, 141.58985901, 0.00763431, -0.32886204, -0.94409800, -0.02168996, -0.01996699, 0.02823880, -0.01483226, 0.00000000, 0.00000000, 0.00000000, 0.00000000
1, 0.5875, 214, 0.02011100, -0.07470744, 1.01474619, 1.19525385, 0.91423124, -1.61556685, 0.00000000, 0.00000000, 0.00000000, 177.36787415, 0.00644306, 141.59399414, 0.00760767, -0.32882854, -0.94411039, -0.02167163, -0.01999855, 0.02878339, -0.01580137, 0.00000000, 0.00000000, 0.00000000, 0.00000000
1, 0.5900, 215, 0.02157184, -0.07176958, 1.01233780, 0.63435829, -0.34073076, -1.90747416, 0.00000000, 0.00000000, 0.00000000, 177.36947632, 0.00751289, 141.59872437, 0.00761104, -0.32878950, -0.94412422, -0.02165581, -0.02144072, 0.02587318, -0.01339161, 0.00000000, 0.00000000, 0.00000000, 0.00000000
1, 0.5925, 216, 0.02059696, -0.07079767, 1.01136076, 0.28454134, -1.31639504, -2.12568283, 0.00000000, 0.00000000, 0.00000000, 177.37017822, 0.01104431, 141.60386658, 0.00763711, -0.32874641, -0.94413936, -0.02164015, -0.02040420, 0.02491369, -0.01241410, 0.00000000, 0.00000000, 0.00000000, 0.00000000
1, 0.5950, 217, 0.02108512, -0.07030599, 1.01088023, -0.06669354, -2.08423972, -2.20340085, 0.00000000, 0.00000000, 0.00000000, 177.37002563, 0.01650222, 141.60914612, 0.00768157, -0.32870203, -0.94415486, -0.02162621, -0.02079710, 0.02441913, -0.01193363, 0.00000000, 0.00000000, 0.00000000, 0.00000000
1, 0.5975, 218, 0.02158844, -0.06833688, 1.00748503, -0.20543239, -2.78060627, -2.34791112, 0.00000000, 0.00000000, 0.00000000, 177.36950684, 0.02371586, 141.61468506, 0.00774142, -0.32865494, -0.94417113, -0.02161011, -0.02117453, 0.02244110, -0.00853890, 0.00000000, 0.00000000, 0.00000000, 0.00000000
1, 0.6000, 219, 0.02256006, -0.06735715, 1.00701082, -0.27480179, -3.12878966, -2.42016697, 0.00000000, 0.00000000, 0.00000000, 177.36882019, 0.03180740, 141.62037659, 0.00780898, -0.32860649, -0.94418782, -0.02159292, -0.02200492, 0.02144945, -0.00806529, 0.00000000, 0.00000000, 0.00000000, 0.00000000
1, 0.6025, 220, 0.02353745, -0.06490732, 1.00459599, -0.34481299, -3.54786992, -2.35321879, 0.00000000, 0.00000000, 0.00000000, 177.36795044, 0.04093793, 141.62583923, 0.00788565, -0.32855961, -0.94420391, -0.02157419, -0.02282294, 0.01898465, -0.00565130, 0.00000000, 0.00000000, 0.00000000, 0.00000000
1, 0.6050, 221, 0.02501637, -0.06293248, 1.00120878, -0.27514508, -3.75894547, -2.07425284, 0.00000000, 0.00000000, 0.00000000, 177.36727905, 0.05056364, 141.63058472, 0.00796603, -0.32851857, -0.94421804, -0.02155256, -0.02413387, 0.01699788, -0.00226474, 0.00000000, 0.00000000, 0.00000000, 0.00000000
1, 0.6075, 222, 0.02451626, -0.06050222, 1.00024319, -0.06190283, -4.10615158, -2.07321525, 0.00000000, 0.00000000, 0.00000000, 177.36712646, 0.06105632, 141.63529968, 0.00805203, -0.32847780, -0.94423217, -0.02152404, -0.02345063, 0.01456501, -0.00129944, 0.00000000, 0.00000000, 0.00000000, 0.00000000
1, 0.6100, 223, 0.02552148, -0.05851927, 0.99539095, 0.29271987, -4.10295057, -2.20832729, 0.00000000, 0.00000000, 0.00000000, 177.35238647, 0.10104579, 141.64064026, 0.00842280, -0.32842505, -0.94424707, -0.02153129, -0.02375790, 0.01232504, 0.00353992, 0.00000000, 0.00000000, 0.00000000, 0.00000000
1, 0.6125, 224, 0.02555003, -0.05800854, 0.99198455, 0.85945058, -3.88891292, -2.40958834, 0.00000000, 0.00000000, 0.00000000, 177.35453796, 0.11103608, 141.64620972, 0.00849789, -0.32837737, -0.94426405, -0.02148528, -0.02361209, 0.01185197, 0.00694776, 0.00000000, 0.00000000, 0.00000000, 0.00000000
1, 0.6150, 225, 0.02653211, -0.05555505, 0.98908275, 1.49613285, -3.53573012, -2.53955960, 0.00000000, 0.00000000, 0.00000000, 177.35829163, 0.12015884, 141.65214539, 0.00856120, -0.32832700, -0.94428229, -0.02142865, -0.02443495, 0.00946391, 0.00985229, 0.00000000, 0.00000000, 0.00000000, 0.00000000
1, 0.6175, 226, 0.02945890, -0.05553784, 0.98910642, 1.99065852, -3.25423694, -2.53209352, 0.00000000, 0.00000000, 0.00000000, 177.36328125, 0.12857726, 141.65809631, 0.00861516, -0.32827672, -0.94430077, -0.02136386, -0.02721482, 0.00953371, 0.00983238, 0.00000000, 0.00000000, 0.00000000, 0.00000000
1, 0.6200, 227, 0.03137686, -0.05604076, 0.99301565, 2.55371737, -2.62577796, -2.31284690, 0.00000000, 0.00000000, 0.00000000, 177.36967468, 0.13540044, 141.66357422, 0.00865205, -0.32823074, -0.94431794, -0.02129201, -0.02901368, 0.01014817, 0.00592792, 0.00000000, 0.00000000, 0.00000000, 0.00000000
1, 0.6225, 228, 0.03380105, -0.05701502, 0.99546534, 3.11783624, -1.92581391, -2.30256581, 0.00000000, 0.00000000, 0.00000000, 177.37748718, 0.14047371, 141.66909790, 0.00867046, -0.32818478, -0.94433552, -0.02121355, -0.03134932, 0.01125857, 0.00348431, 0.00000000, 0.00000000, 0.00000000, 0.00000000
1, 0.6250, 229, 0.03480595, -0.06187190, 0.99690980, 3.75132489, -0.87766612, -2.22003007, 0.00000000, 0.00000000, 0.00000000, 177.38687134, 0.14291902, 141.67454529, 0.00866271, -0.32814017, -0.94435298, -0.02112956, -0.03231155, 0.01627921, 0.00204724, 0.00000000, 0.00000000, 0.00000000, 0.00000000
1, 0.6275, 230, 0.03626144, -0.06626633, 1.00176942, 4.45409250, 0.09876399, -1.85788321, 0.00000000, 0.00000000, 0.00000000, 177.39802551, 0.14288382, 141.67919922, 0.00862965, -0.32810268, -0.94436830, -0.02103815, -0.03376764, 0.02086797, -0.00280350, 0.00000000, 0.00000000, 0.00000000, 0.00000000
1, 0.6300, 231, 0.03769741, -0.07165301, 1.00954616, 5.08674526, 1.14569402, -1.63582194, 0.00000000, 0.00000000, 0.00000000, 177.41075134, 0.14020789, 141.68341064, 0.00857039, -0.32806942, -0.94438267, -0.02094124, -0.03525033, 0.02647656, -0.01057005, 0.00000000, 0.00000000, 0.00000000, 0.00000000
1, 0.6325, 232, 0.04059422, -0.07410182, 1.01491439, 5.29315281, 2.04784203, -1.07088792, 0.00000000, 0.00000000, 0.00000000, 177.42399597, 0.13521414, 141.68630981, 0.00849080, -0.32804742, -0.94439316, -0.02084664, -0.03823430, 0.02915621, -0.01592780, 0.00000000, 0.00000000, 0.00000000, 0.00000000
1, 0.6350, 233, 0.04253281, -0.07849703, 1.02026498, 5.56948137, 2.94916916, -0.36554632, 0.00000000, 0.00000000, 0.00000000, 177.43791199, 0.12788963, 141.68757629, 0.00839034, -0.32803956, -0.94439870, -0.02075293, -0.04030072, 0.03379422, -0.02126712, 0.00000000, 0.00000000, 0.00000000, 0.00000000
1, 0.6375, 234, 0.04346434, -0.08096827, 1.02707839, 5.77608252, 3.78163791, 0.19906570, 0.00000000, 0.00000000, 0.00000000, 177.45236206, 0.11842285, 141.68748474, 0.00827100, -0.32804301, -0.94440061, -0.02066102, -0.04139747, 0.03651721, -0.02806902, 0.00000000, 0.00000000, 0.00000000, 0.00000000
1, 0.6400, 235, 0.04541196, -0.08584500, 1.03193963, 5.91044760, 4.54159546, 1.04152298, 0.00000000, 0.00000000, 0.00000000, 177.46713257, 0.10696469, 141.68537903, 0.00813466, -0.32806349, -0.94439667, -0.02057194, -0.04354508, 0.04165150, -0.03291834, 0.00000000, 0.00000000, 0.00000000, 0.00000000
1, 0.6425, 236, 0.04588316, -0.08927483, 1.03679621, 5.90488052, 4.88329411, 1.81052029, 0.00000000, 0.00000000, 0.00000000, 177.48188782, 0.09456899, 141.68139648, 0.00799097, -0.32809964, -0.94438720, -0.02048555, -0.04423262, 0.04533858, -0.03776330, 0.00000000, 0.00000000, 0.00000000, 0.00000000
1, 0.6450, 237, 0.04780474, -0.09124056, 1.04167211, 5.61589622, 5.36276484, 2.57663131, 0.00000000, 0.00000000, 0.00000000, 177.49591064, 0.08089276, 141.67555237, 0.00783913, -0.32815132, -0.94437218, -0.02040868, -0.04639289, 0.04754893, -0.04262799, 0.00000000, 0.00000000, 0.00000000, 0.00000000
1, 0.6475, 238, 0.04975741, -0.09562480, 1.04556167, 5.32743454, 5.35326338, 3.48001337, 0.00000000, 0.00000000, 0.00000000, 177.50921631, 0.06714325, 141.66744995, 0.00768915, -0.32822156, -0.94435054, -0.02033784, -0.04858556, 0.05216523, -0.04650725, 0.00000000, 0.00000000, 0.00000000, 0.00000000
1, 0.6500, 239, 0.04775453, -0.09567647, 1.05090272, 4.82820845, 5.55465364, 4.03290129, 0.00000000, 0.00000000, 0.00000000, 177.52128601, 0.05283260, 141.65797424, 0.00753835, -0.32830298, -0.94432473, -0.02027882, -0.04683244, 0.05242719, -0.05183883, 0.00000000, 0.00000000, 0.00000000, 0.00000000
1, 0.6525, 240, 0.04627597, -0.09716249, 1.05380547, 4.18879461, 5.12752962, 4.65088892, 0.00000000, 0.00000000, 0.00000000, 177.53173828, 0.03952403, 141.64689636, 0.00740065, -0.32839721, -0.94429410, -0.02023001, -0.04558615, 0.05409564, -0.05473347, 0.00000000, 0.00000000, 0.00000000, 0.00000000
1, 0.6550, 241, 0.04284764, -0.09670471, 1.05475426, 3.19665408, 4.76992846, 5.05549717, 0.00000000, 0.00000000, 0.00000000, 177.53973389, 0.02706677, 141.63479614, 0.00727725, -0.32849976, -0.94426006, -0.02019915, -0.04237524, 0.05377709, -0.05567618, 0.00000000, 0.00000000, 0.00000000, 0.00000000
1, 0.6575, 242, 0.03741460, -0.09239169, 1.05765486, 2.20567727, 3.99425268, 5.45817327, 0.00000000, 0.00000000, 0.00000000, 177.54524231, 0.01650526, 141.62159729, 0.00717675, -0.32861081, -0.94422251, -0.02018320, -0.03712653, 0.04956013, -0.05857261, 0.00000000, 0.00000000, 0.00000000, 0.00000000
1, 0.6600, 243, 0.03053224, -0.08807632, 1.05908251, 1.00571227, 2.94232225, 5.43833923, 0.00000000, 0.00000000, 0.00000000, 177.52006531, 0.02828249, 141.60871887, 0.00734830, -0.32871309, -0.94418186, -0.02035610, -0.03003862, 0.04480565, -0.06001920, 0.00000000, 0.00000000, 0.00000000, 0.00000000
1, 0.6625, 244, 0.02123367, -0.08473466, 1.05902457, -0.40777892, 1.88737571, 5.62514448, 0.00000000, 0.00000000, 0.00000000, 177.51902771, 0.02295985, 141.59487915, 0.00730984, -0.32882807, -0.94414163, -0.02037893, -0.02083295, 0.04144610, -0.05996211, 0.00000000, 0.00000000, 0.00000000, 0.00000000
1, 0.6650, 245, 0.01193255, -0.07846373, 1.05654657, -1.74828899, 0.48625702, 5.60193491, 0.00000000, 0.00000000, 0.00000000, 177.51464844, 0.02113854, 141.58093262, 0.00730988, -0.32894298, -0.94410074, -0.02041933, -0.01156361, 0.03509886, -0.05748726, 0.00000000, 0.00000000, 0.00000000, 0.00000000
1, 0.6675, 246, 0.00410494, -0.07119925, 1.05213726, -2.87455678, -1.47049570, 5.50903368, 0.00000000, 0.00000000, 0.00000000, 177.50747681, 0.02421329, 141.56701660, 0.00735834, -0.32905665, -0.94405973, -0.02046886, -0.00368234, 0.02770897, -0.05308342, 0.00000000, 0.00000000, 0.00000000, 0.00000000
1, 0.6700, 247, -0.00324356, -0.06296156, 1.04773676, -4.07116365, -3.42703629, 5.34548807, 0.00000000, 0.00000000, 0.00000000, 177.49728394, 0.03219048, 141.55329895, 0.00745577, -0.32916760, -0.94401896, -0.02052897, 0.00380539, 0.01929371, -0.04869087, 0.00000000, 0.00000000, 0.00000000, 0.00000000
1, 0.6725, 248, -0.01252481, -0.05520957, 1.04185712, -5.19637203, -5.31228399, 5.04362154, 0.00000000, 0.00000000, 0.00000000, 177.48426819, 0.04490633, 141.54011536, 0.00760023, -0.32927299, -0.94397944, -0.02059866, 0.01330858, 0.01131504, -0.04282129, 0.00000000, 0.00000000, 0.00000000, 0.00000000
1, 0.6750, 249, -0.02086698, -0.04601460, 1.03842759, -6.03671503, -7.40315628, 4.53503227, 0.00000000, 0.00000000, 0.00000000, 177.46917725, 0.06289718, 141.52796936, 0.00779402, -0.32936871, -0.94394290, -0.02067055, 0.02196475, 0.00185675, -0.03940362, 0.00000000, 0.00000000, 0.00000000, 0.00000000
1, 0.6775, 250, -0.02572332, -0.04211811, 1.03256392, -7.01915503, -9.28578377, 4.02564383, 0.00000000, 0.00000000, 0.00000000, 177.45161438, 0.08564295, 141.51689148, 0.00803387, -0.32945463, -0.94390923, -0.02074906, 0.02721807, -0.00234594, -0.03355402, 0.00000000, 0.00000000, 0.00000000, 0.00000000
1, 0.6800, 251, -0.02960876, -0.03821954, 1.02719510, -7.57902050, -10.60920620, 3.59388900, 0.00000000, 0.00000000, 0.00000000, 177.43264771, 0.11173854, 141.50672913, 0.00830520, -0.32953209, -0.94387805, -0.02082951, 0.03155898, -0.00657515, -0.02820075, 0.00000000, 0.00000000, 0.00000000, 0.00000000
1, 0.6825, 252, -0.03496087, -0.03237794, 1.02036321, -8.06693459, -12.21033955, 3.09196687, 0.00000000, 0.00000000, 0.00000000, 177.41246033, 0.14188595, 141.49763489, 0.00861323, -0.32959983, -0.94384992, -0.02090840, 0.03743725, -0.01276868, -0.02138585, 0.00000000, 0.00000000, 0.00000000, 0.00000000
1, 0.6850, 253, -0.03740099, -0.02750774, 1.01598513, -8.48647881, -13.25486183, 2.73302841, 0.00000000, 0.00000000, 0.00000000, 177.39122009, 0.17467923, 141.48930359, 0.00894594, -0.32966053, -0.94382387, -0.02098835, 0.04044972, -0.01800912, -0.01702625, 0.00000000, 0.00000000, 0.00000000, 0.00000000
1, 0.6875, 254, -0.03934932, -0.02360866, 1.01209295, -8.76586723, -13.81083870, 2.37810946, 0.00000000, 0.00000000, 0.00000000, 177.36927795, 0.20889862, 141.48179626, 0.00929228, -0.32971409, -0.94379997, -0.02106998, 0.04299529, -0.02229064, -0.01315350, 0.00000000, 0.00000000, 0.00000000, 0.00000000
1, 0.6900, 255, -0.04323476, -0.01971008, 1.00672424, -8.76219559, -14.22525978, 1.95760238, 0.00000000, 0.00000000, 0.00000000, 177.34735107, 0.24419837, 141.47526550, 0.00964731, -0.32975915, -0.94377893, -0.02114847, 0.04749683, -0.02657147, -0.00780487, 0.00000000, 0.00000000, 0.00000000, 0.00000000
1, 0.6925, 256, -0.04467288, -0.01725632, 1.00185478, -8.54744625, -14.36038399, 1.61079359, 0.00000000, 0.00000000, 0.00000000, 177.32595825, 0.27987349, 141.46957397, 0.01000374, -0.32979712, -0.94376028, -0.02122149, 0.04955757, -0.02939809, -0.00295562, 0.00000000, 0.00000000, 0.00000000, 0.00000000
1, 0.6950, 257, -0.04561559, -0.01723648, 0.99843806, -8.19273472, -13.93728256, 1.26832640, 0.00000000, 0.00000000, 0.00000000, 177.30545044, 0.31452984, 141.46476746, 0.01034906, -0.32982790, -0.94374430, -0.02129018, 0.05110516, -0.02977530, 0.00044119, 0.00000000, 0.00000000, 0.00000000, 0.00000000
1, 0.6975, 258, -0.04509924, -0.01672287, 0.99503553, -7.48578739, -12.95476532, 0.93284833, 0.00000000, 0.00000000, 0.00000000, 177.28671265, 0.34677079, 141.46092224, 0.01066923, -0.32985142, -0.94373119, -0.02135129, 0.05115151, -0.03061541, 0.00382507, 0.00000000, 0.00000000, 0.00000000, 0.00000000
1, 0.7000, 259, -0.04701827, -0.01768641, 0.99257994, -6.77967596, -11.97346401, 0.73689544, 0.00000000, 0.00000000, 0.00000000, 177.26974487, 0.37658319, 141.45765686, 0.01096419, -0.32987055, -0.94371980, -0.02140489, 0.05359083, -0.02994755, 0.00626332, 0.00000000, 0.00000000, 0.00000000, 0.00000000
1, 0.7025, 260, -0.04895899, -0.01622411, 0.99013656, -5.93343735, -10.64358330, 0.61408007, 0.00000000, 0.00000000, 0.00000000, 177.25488281, 0.40308854, 141.45484924, 0.01122575, -0.32988673, -0.94371009, -0.02145060, 0.05599417, -0.03166863, 0.00869107, 0.00000000, 0.00000000, 0.00000000, 0.00000000
1, 0.7050, 261, -0.04748043, -0.01473809, 0.98723388, -4.87753916, -8.82658482, 0.70545435, 0.00000000, 0.00000000, 0.00000000, 177.24267578, 0.42504495, 141.45202637, 0.01144224, -0.32990417, -0.94370049, -0.02148766, 0.05489879, -0.03336744, 0.01158088, 0.00000000, 0.00000000, 0.00000000, 0.00000000
1, 0.7075, 262, -0.04603440, -0.01278882, 0.98725551, -3.68073797, -6.93972445, 0.86867809, 0.00000000, 0.00000000, 0.00000000, 177.23345947, 0.44226959, 141.44902039, 0.01161121, -0.32992437, -0.94369078, -0.02151371, 0.05375338, -0.03547741, 0.01154923, 0.00000000, 0.00000000, 0.00000000, 0.00000000
1, 0.7100, 263, -0.04555492, -0.01132680, 0.98677975, -2.48393655, -5.05286217, 1.03190196, 0.00000000, 0.00000000, 0.00000000, 177.26147461, 0.40456158, 141.44541931, 0.01122069, -0.32996470, -0.94368428, -0.02139123, 0.05261581, -0.03645120, 0.01205325, 0.00000000, 0.00000000, 0.00000000, 0.00000000
1, 0.7125, 264, -0.04553720, -0.01277864, 0.98628545, -1.21640754, -3.30557108, 1.26512671, 0.00000000, 0.00000000, 0.00000000, 177.25840759, 0.41266492, 141.44187927, 0.01129691, -0.32999200, -0.94367379, -0.02139279, 0.05273951, -0.03505277, 0.01254410, 0.00000000, 0.00000000, 0.00000000, 0.00000000
1, 0.7150, 265, -0.04504108, -0.01423493, 0.98676902, -0.08994573, -1.41849744, 1.35770547, 0.00000000, 0.00000000, 0.00000000, 177.25814819, 0.41604486, 141.43830872, 0.01132613, -0.33002058, -0.94366360, -0.02138476, 0.05230238, -0.03360083, 0.01205987, 0.00000000, 0.00000000, 0.00000000, 0.00000000
1, 0.7175, 266, -0.04454424, -0.01471357, 0.98628354, 1.10846758, 0.19086514, 1.38011622, 0.00000000, 0.00000000, 0.00000000, 177.26089478, 0.41540346, 141.43489075, 0.01131358, -0.33004916, -0.94365424, -0.02136366, 0.05179433, -0.03307431, 0.01254773, 0.00000000, 0.00000000, 0.00000000, 0.00000000
1, 0.7200, 267, -0.04207486, -0.01809539, 0.98628616, 2.16739559, 1.52254474, 1.19018614, 0.00000000, 0.00000000, 0.00000000, 177.26629639, 0.41145951, 141.43211365, 0.01126607, -0.33007345, -0.94364697, -0.02133029, 0.04925613, -0.02959841, 0.01255012, 0.00000000, 0.00000000, 0.00000000, 0.00000000
1, 0.7225, 268, -0.04159247, -0.01907381, 0.98774618, 3.22648764, 2.64457798, 1.06905246, 0.00000000, 0.00000000, 0.00000000, 177.27435303, 0.40472823, 141.42974854, 0.01118789, -0.33009502, -0.94364142, -0.02128317, 0.04865625, -0.02847969, 0.01109749, 0.00000000, 0.00000000, 0.00000000, 0.00000000
1, 0.7250, 269, -0.03911370, -0.02244833, 0.98677480, 4.35694933, 3.69793773, 0.87871701, 0.00000000, 0.00000000, 0.00000000, 177.28523254, 0.39538959, 141.42799377, 0.01107998, -0.33011246, -0.94363803, -0.02122032, 0.04601449, -0.02491556, 0.01207906, 0.00000000, 0.00000000, 0.00000000, 0.00000000
1, 0.7275, 270, -0.03568245, -0.02534655, 0.98776174, 5.06461239, 4.12180519, 0.68018746, 0.00000000, 0.00000000, 0.00000000, 177.29788208, 0.38501620, 141.42677307, 0.01095833, -0.33012578, -0.94363648, -0.02114591, 0.04240221, -0.02179680, 0.01110375, 0.00000000, 0.00000000, 0.00000000, 0.00000000
1, 0.7300, 271, -0.03029098, -0.02871482, 0.98827499, 5.77314186, 4.68685627, 0.27301478, 0.00000000, 0.00000000, 0.00000000, 177.31231689, 0.37328002, 141.42665100, 0.01082014, -0.33013061, -0.94363832, -0.02106088, 0.03680590, -0.01817700, 0.01060373, 0.00000000, 0.00000000, 0.00000000, 0.00000000
1, 0.7325, 272, -0.02439362, -0.03304324, 0.98781335, 6.48283482, 4.83383512, -0.13609029, 0.00000000, 0.00000000, 0.00000000, 177.32853699, 0.36122465, 141.42755127, 0.01067400, -0.33012706, -0.94364333, -0.02096220, 0.03069814, -0.01356599, 0.01108009, 0.00000000, 0.00000000, 0.00000000, 0.00000000
1, 0.7350, 273, -0.02439362, -0.03304324, 0.98781335, 6.48283482, 4.83383512, -0.13609029, 0.00000000, 0.00000000, 0.00000000, 177.34474182, 0.34916881, 141.42846680, 0.01052785, -0.33012357, -0.94364840, -0.02086352, 0.03048773, -0.01328340, 0.01109433, 0.00000000, 0.00000000, 0.00000000, 0.00000000
1, 0.7375, 274, -0.01367139, -0.03933844, 0.99468613, 7.90263891, 5.12839890, -1.02406287, 0.00000000, 0.00000000, 0.00000000, 177.36451721, 0.33647972, 141.43159485, 0.01036582, -0.33010200, -0.94366056, -0.02073752, 0.01954403, -0.00664348, 0.00423890, 0.00000000, 0.00000000, 0.00000000, 0.00000000
1, 0.7400, 275, -0.01367139, -0.03933844, 0.99468613, 7.90263891, 5.12839890, -1.02406287, 0.00000000, 0.00000000, 0.00000000, 177.38429260, 0.32378945, 141.43473816, 0.01020379, -0.33008039, -0.94367266, -0.02061153, 0.01932255, -0.00629877, 0.00425589, 0.00000000, 0.00000000, 0.00000000, 0.00000000
1, 0.7425, 276, -0.00241723, -0.04950480, 1.00056934, 8.40267181, 4.78825903, -1.64735734, 0.00000000, 0.00000000, 0.00000000, 177.40531921, 0.31201822, 141.43940735, 0.01004545, -0.33004621, -0.94368935, -0.02047265, 0.00786295, 0.00423424, -0.00160950, 0.00000000, 0.00000000, 0.00000000, 0.00000000
1, 0.7450, 277, -0.00241723, -0.04950480, 1.00056934, 8.40267181, 4.78825903, -1.64735734, 0.00000000, 0.00000000, 0.00000000, 177.42636108, 0.30024564, 141.44406128, 0.00988710, -0.33001199, -0.94370604, -0.02033377, 0.00765748, 0.00460088, -0.00159174, 0.00000000, 0.00000000, 0.00000000, 0.00000000
1, 0.7475, 278, 0.00883223, -0.05967482, 1.00693953, 8.47829437, 4.09612751, -2.13803267, 0.00000000, 0.00000000, 0.00000000, 177.44758606, 0.29025462, 141.44984436, 0.00974267, -0.32996795, -0.94372594, -0.02018825, -0.00376635, 0.01514093, -0.00794446, 0.00000000, 0.00000000, 0.00000000, 0.00000000
1, 0.7500, 279, 0.00883223, -0.05967482, 1.00693953, 8.47829437, 4.09612751, -2.13803267, 0.00000000, 0.00000000, 0.00000000, 177.46881104, 0.28026158, 141.45565796, 0.00959825, -0.32992390, -0.94374597, -0.02004272, -0.00394076, 0.01551097, -0.00792730, 0.00000000, 0.00000000, 0.00000000, 0.00000000
1, 0.7525, 280, 0.01372620, -0.06989307, 1.01471937, 8.33994293, 3.26040244, -2.28318739, 0.00000000, 0.00000000, 0.00000000, 177.48968506, 0.27236953, 141.46171570, 0.00947209, -0.32987723, -0.94376671, -0.01989400, -0.00897248, 0.02609325, -0.01569033, 0.00000000, 0.00000000, 0.00000000, 0.00000000
1, 0.7550, 281, 0.01519685, -0.07281008, 1.01666439, 8.19878674, 2.98028374, -2.21647763, 0.00000000, 0.00000000, 0.00000000, 177.51020813, 0.26516765, 141.46757507, 0.00935268, -0.32983202, -0.94378686, -0.01974618, -0.01056882, 0.02936811, -0.01761926, 0.00000000, 0.00000000, 0.00000000, 0.00000000
1, 0.8025, 282, 0.03214461, -0.05131125, 1.01009238, 3.71605873, 3.19869971, 1.77543151, 0.00000000, 0.00000000, 0.00000000, 177.75692749, 0.15611903, 141.48794556, 0.00774119, -0.32970163, -0.94388127, -0.01802954, -0.02941983, 0.01217121, -0.01086241, 0.00000000, 0.00000000, 0.00000000, 0.00000000
1, 0.8050, 283, 0.03167162, -0.05032552, 1.00765836, 3.36101818, 3.19488978, 1.98030615, 0.00000000, 0.00000000, 0.00000000, 177.76530457, 0.14794457, 141.48332214, 0.00765044, -0.32974172, -0.94386888, -0.01798364, -0.02908951, 0.01133178, -0.00842226, 0.00000000, 0.00000000, 0.00000000, 0.00000000
1, 0.8075, 284, 0.03216989, -0.04884889, 1.00523484, 3.00755954, 2.77361393, 2.11348581, 0.00000000, 0.00000000, 0.00000000, 177.77282715, 0.14081019, 141.47830200, 0.00757086, -0.32978463, -0.94385535, -0.01794202, -0.02971230, 0.00998605, -0.00599337, 0.00000000, 0.00000000, 0.00000000, 0.00000000
1, 0.8100, 285, 0.03215902, -0.04446047, 1.00233483, 2.79622746, 2.28406143, 2.17834640, 0.00000000, 0.00000000, 0.00000000, 177.77363586, 0.16771078, 141.47332764, 0.00779086, -0.32982132, -0.94384235, -0.01785753, -0.02923192, 0.00561190, -0.00309402, 0.00000000, 0.00000000, 0.00000000, 0.00000000
1, 0.8125, 286, 0.03167770, -0.04201559, 0.99942124, 2.51494408, 1.65536284, 2.17191768, 0.00000000, 0.00000000, 0.00000000, 177.77990723, 0.16336502, 141.46806335, 0.00773783, -0.32986581, -0.94382799, -0.01781803, -0.02882646, 0.00327639, -0.00017589, 0.00000000, 0.00000000, 0.00000000, 0.00000000
1, 0.8150, 287, 0.03167117, -0.03811234, 0.99651891, 2.30541801, 0.81863236, 2.09564304, 0.00000000, 0.00000000, 0.00000000, 177.78564453, 0.16111732, 141.46290588, 0.00770357, -0.32990903, -0.94381392, -0.01777680, -0.02885914, -0.00052660, 0.00273031, 0.00000000, 0.00000000, 0.00000000, 0.00000000
1, 0.8175, 288, 0.03168741, -0.03516847, 0.99215072, 2.23824215, -0.01608709, 1.88160849, 0.00000000, 0.00000000, 0.00000000, 177.79124451, 0.16097602, 141.45820618, 0.00768706, -0.32994816, -0.94380128, -0.01773092, -0.02887786, -0.00337312, 0.00710231, 0.00000000, 0.00000000, 0.00000000, 0.00000000
1, 0.8200, 289, 0.03120574, -0.03321240, 0.98972166, 2.31299949, -0.84940451, 1.59957659, 0.00000000, 0.00000000, 0.00000000, 177.79699707, 0.16294408, 141.45413208, 0.00768729, -0.32998180, -0.94379050, -0.01767744, -0.02836184, -0.00522854, 0.00953514, 0.00000000, 0.00000000, 0.00000000, 0.00000000
1, 0.8225, 290, 0.02829881, -0.03174853, 0.98629642, 2.45790243, -1.61325479, 1.38851178, 0.00000000, 0.00000000, 0.00000000, 177.80313110, 0.16684110, 141.45050049, 0.00770227, -0.33001143, -0.94378120, -0.01761545, -0.02538689, -0.00658541, 0.01296431, 0.00000000, 0.00000000, 0.00000000, 0.00000000
1, 0.8250, 291, 0.02585435, -0.02639317, 0.98192072, 2.88647604, -2.30462170, 1.04177439, 0.00000000, 0.00000000, 0.00000000, 177.81034851, 0.17249879, 141.44767761, 0.00772854, -0.33003426, -0.94377446, -0.01753960, -0.02284369, -0.01181506, 0.01734466, 0.00000000, 0.00000000, 0.00000000, 0.00000000
1, 0.8275, 292, 0.02492032, -0.02734366, 0.97849905, 3.38419557, -2.71809316, 0.83673286, 0.00000000, 0.00000000, 0.00000000, 177.81880188, 0.17920934, 141.44534302, 0.00775982, -0.33005306, -0.94376916, -0.01745049, -0.02179253, -0.01071711, 0.02077156, 0.00000000, 0.00000000, 0.00000000, 0.00000000
1, 0.8300, 293, 0.02391290, -0.02590851, 0.98044646, 4.09257507, -2.85287571, 0.77515191, 0.00000000, 0.00000000, 0.00000000, 177.82902527, 0.18626286, 141.44313049, 0.00778880, -0.33007079, -0.94376463, -0.01734581, -0.02066201, -0.01197392, 0.01883042, 0.00000000, 0.00000000, 0.00000000, 0.00000000
1, 0.8325, 294, 0.02339799, -0.02446685, 0.98191077, 4.51592541, -2.57238817, 0.85149801, 0.00000000, 0.00000000, 0.00000000, 177.84030151, 0.19260883, 141.44075012, 0.00780892, -0.33009008, -0.94375980, -0.01723445, -0.02003634, -0.01321882, 0.01737326, 0.00000000, 0.00000000, 0.00000000, 0.00000000
1, 0.8350, 295, 0.02483754, -0.02496533, 0.98484206, 4.93833542, -1.80353808, 0.86033595, 0.00000000, 0.00000000, 0.00000000, 177.85264587, 0.19703378, 141.43844604, 0.00781017, -0.33010930, -0.94375515, -0.01711993, -0.02139866, -0.01250514, 0.01444989, 0.00000000, 0.00000000, 0.00000000, 0.00000000
1, 0.8375, 296, 0.02336582, -0.02351478, 0.98435056, 5.35990953, -1.03590572, 1.00869870, 0.00000000, 0.00000000, 0.00000000, 177.86604309, 0.19952750, 141.43582153, 0.00779252, -0.33013138, -0.94374973, -0.01700228, -0.01988342, -0.01372213, 0.01494980, 0.00000000, 0.00000000, 0.00000000, 0.00000000
1, 0.8400, 297, 0.02433023, -0.02596045, 0.98775518, 5.78126097, -0.33856118, 1.22650194, 0.00000000, 0.00000000, 0.00000000, 177.88047791, 0.20025963, 141.43272400, 0.00775740, -0.33015773, -0.94374299, -0.01688102, -0.02083505, -0.01102457, 0.01155448, 0.00000000, 0.00000000, 0.00000000, 0.00000000
1, 0.8425, 298, 0.02286831, -0.03036478, 0.99161720, 6.20041704, 0.84531957, 1.58608449, 0.00000000, 0.00000000, 0.00000000, 177.89596558, 0.19800165, 141.42884827, 0.00769475, -0.33019114, -0.94373399, -0.01675972, -0.01941254, -0.00635012, 0.00770259, 0.00000000, 0.00000000, 0.00000000, 0.00000000
1, 0.8450, 299, 0.01943748, -0.03332873, 0.99595779, 6.55042839, 1.75130498, 1.80397129, 0.00000000, 0.00000000, 0.00000000, 177.91232300, 0.19346142, 141.42449951, 0.00761085, -0.33022875, -0.94372368, -0.01663777, -0.01606095, -0.00310082, 0.00337279, 0.00000000, 0.00000000, 0.00000000, 0.00000000
1, 0.8475, 300, 0.01745160, -0.03580988, 1.00177348, 6.90102100, 2.44825292, 2.02089190, 0.00000000, 0.00000000, 0.00000000, 177.92956543, 0.18716162, 141.41967773, 0.00750999, -0.33027059, -0.94371206, -0.01651366, -0.01418503, -0.00031905, -0.00243157, 0.00000000, 0.00000000, 0.00000000, 0.00000000
1, 0.8500, 301, 0.01304481, -0.03926839, 1.00659072, 7.04059553, 3.14583707, 2.02587771, 0.00000000, 0.00000000, 0.00000000, 177.94715881, 0.17911996, 141.41490173, 0.00739376, -0.33031231, -0.94370043, -0.01639170, -0.00991859, 0.00344619, -0.00723744, 0.00000000, 0.00000000, 0.00000000, 0.00000000
1, 0.8525, 302, 0.00913415, -0.04418318, 1.01189148, 7.18055820, 3.70406365, 2.03021908, 0.00000000, 0.00000000, 0.00000000, 177.96508789, 0.16968469, 141.41014099, 0.00726503, -0.33035398, -0.94368899, -0.01627088, -0.00617260, 0.00867382, -0.01252664, 0.00000000, 0.00000000, 0.00000000, 0.00000000
1, 0.8550, 303, 0.00523032, -0.04616141, 1.01379812, 7.03698444, 3.84019279, 2.30814791, 0.00000000, 0.00000000, 0.00000000, 177.98266602, 0.15988621, 141.40472412, 0.00713443, -0.33040124, -0.94367546, -0.01615405, -0.00243979, 0.01095861, -0.01442176, 0.00000000, 0.00000000, 0.00000000, 0.00000000
1, 0.8575, 304, -0.00016003, -0.04767768, 1.01764333, 6.89421606, 3.83757329, 2.51567054, 0.00000000, 0.00000000, 0.00000000, 177.99989319, 0.15007778, 141.39877319, 0.00700484, -0.33045274, -0.94366026, -0.01604016, 0.00277938, 0.01277522, -0.01825613, 0.00000000, 0.00000000, 0.00000000, 0.00000000
1, 0.8600, 305, -0.00357968, -0.04819024, 1.01858723, 6.75167131, 3.90524149, 2.65375209, 0.00000000, 0.00000000, 0.00000000, 178.00918579, 0.13653180, 141.39251709, 0.00686735, -0.33050674, -0.94364303, -0.01600228, 0.00596261, 0.01344995, -0.01919371, 0.00000000, 0.00000000, 0.00000000, 0.00000000
1, 0.8625, 306, -0.00455094, -0.04868114, 1.01857686, 6.39840603, 3.41428709, 2.78660989, 0.00000000, 0.00000000, 0.00000000, 178.02516174, 0.12776023, 141.38584900, 0.00674995, -0.33056387, -0.94362563, -0.01589559, 0.00678078, 0.01421958, -0.01917326, 0.00000000, 0.00000000, 0.00000000, 0.00000000
1, 0.8650, 307, -0.00745966, -0.04966137, 1.01757431, 5.90301514, 2.99160910, 2.98778701, 0.00000000, 0.00000000, 0.00000000, 178.03991699, 0.12002918, 141.37864685, 0.00664476, -0.33062521, -0.94360656, -0.01579609, 0.00955456, 0.01545694, -0.01816165, 0.00000000, 0.00000000, 0.00000000, 0.00000000
1, 0.8675, 308, -0.00842443, -0.04770452, 1.01465428, 5.55075121, 2.29222584, 3.04991651, 0.00000000, 0.00000000, 0.00000000, 178.05375671, 0.11404213, 141.37121582, 0.00655648, -0.33068800, -0.94358677, -0.01569879, 0.01041484, 0.01374187, -0.01523316, 0.00000000, 0.00000000, 0.00000000, 0.00000000
1, 0.8700, 309, -0.00889742, -0.04671879, 1.01222026, 5.12856483, 1.59366381, 2.97163773, 0.00000000, 0.00000000, 0.00000000, 178.06657410, 0.10980863, 141.36392212, 0.00648565, -0.33074939, -0.94356728, -0.01560514, 0.01081394, 0.01297954, -0.01279151, 0.00000000, 0.00000000, 0.00000000, 0.00000000
1, 0.8725, 310, -0.00937403, -0.04427025, 1.00881970, 4.77674818, 1.03485632, 2.89488649, 0.00000000, 0.00000000, 0.00000000, 178.07850647, 0.10697955, 141.35678101, 0.00642890, -0.33080932, -0.94354814, -0.01551468, 0.01124118, 0.01073907, -0.00938374, 0.00000000, 0.00000000, 0.00000000, 0.00000000
1, 0.8750, 311, -0.00642084, -0.04667522, 1.00834417, 4.42531872, 0.33669072, 2.81749034, 0.00000000, 0.00000000, 0.00000000, 178.08955383, 0.10590282, 141.34976196, 0.00638907, -0.33086783, -0.94352937, -0.01542641, 0.00826919, 0.01333679, -0.00890183, 0.00000000, 0.00000000, 0.00000000, 0.00000000
1, 0.8775, 312, -0.00686707, -0.04762284, 1.00492644, 3.93240523, -0.22230114, 2.66921139, 0.00000000, 0.00000000, 0.00000000, 178.09938049, 0.10623644, 141.34307861, 0.00636437, -0.33092341, -0.94351137, -0.01534423, 0.00872124, 0.01445568, -0.00547838, 0.00000000, 0.00000000, 0.00000000, 0.00000000
1, 0.8800, 313, -0.00589438, -0.04517666, 1.00299859, 3.50883055, -0.57307667, 2.66230559, 0.00000000, 0.00000000, 0.00000000, 178.10812378, 0.10744816, 141.33638000, 0.00634994, -0.33097887, -0.94349325, -0.01526824, 0.00776971, 0.01216231, -0.00354546, 0.00000000, 0.00000000, 0.00000000, 0.00000000
1, 0.8825, 314, -0.00541021, -0.04371099, 1.00203598, 3.01430511, -0.85456985, 2.65483952, 0.00000000, 0.00000000, 0.00000000, 178.11566162, 0.10936476, 141.32966614, 0.00634488, -0.33103427, -0.94347507, -0.01520039, 0.00731898, 0.01082786, -0.00257844, 0.00000000, 0.00000000, 0.00000000, 0.00000000
1, 0.8850, 315, -0.00396524, -0.04322818, 1.00351119, 2.58876085, -0.64852136, 2.72027254, 0.00000000, 0.00000000, 0.00000000, 178.12211609, 0.11076193, 141.32283020, 0.00633863, -0.33109081, -0.94345605, -0.01514280, 0.00589841, 0.01045772, -0.00405020, 0.00000000, 0.00000000, 0.00000000, 0.00000000
1, 0.8875, 316, -0.00299868, -0.04274093, 1.00400841, 2.16296315, -0.65272772, 2.92426443, 0.00000000, 0.00000000, 0.00000000, 178.12750244, 0.11215372, 141.31546021, 0.00633548, -0.33115155, -0.94343567, -0.01509397, 0.00495614, 0.01006455, -0.00454426, 0.00000000, 0.00000000, 0.00000000, 0.00000000
1, 0.8900, 317, -0.00591246, -0.04421363, 1.00397742, 1.73816490, -0.86536264, 3.05752754, 0.00000000, 0.00000000, 0.00000000, 178.13183594, 0.11406655, 141.30773926, 0.00633973, -0.33121502, -0.94341403, -0.01505236, 0.00790329, 0.01161279, -0.00451088, 0.00000000, 0.00000000, 0.00000000, 0.00000000
1, 0.8925, 318, -0.01030194, -0.04326181, 1.00297284, 1.24199784, -1.00932384, 3.25999331, 0.00000000, 0.00000000, 0.00000000, 178.13491821, 0.11632308, 141.29951477, 0.00635046, -0.33128262, -0.94339073, -0.01501996, 0.01233216, 0.01071484, -0.00350469, 0.00000000, 0.00000000, 0.00000000, 0.00000000
1, 0.8950, 319, -0.01376499, -0.03892270, 1.00394118, 1.09842348, -0.87319428, 3.53792214, 0.00000000, 0.00000000, 0.00000000, 178.13764954, 0.11821727, 141.29061890, 0.00635933, -0.33135587, -0.94336540, -0.01499153, 0.01582827, 0.00642332, -0.00447148, 0.00000000, 0.00000000, 0.00000000, 0.00000000
1, 0.8975, 320, -0.01576827, -0.03311219, 1.00395477, 0.81655788, -1.29285562, 3.53245950, 0.00000000, 0.00000000, 0.00000000, 178.13967896, 0.12116101, 141.28167725, 0.00637888, -0.33142909, -0.94333994, -0.01496587, 0.01788293, 0.00064810, -0.00448412, 0.00000000, 0.00000000, 0.00000000, 0.00000000
1, 0.9000, 321, -0.02064520, -0.03167441, 1.00246167, 0.60506171, -1.57276177, 3.52852368, 0.00000000, 0.00000000, 0.00000000, 178.14115906, 0.12480459, 141.27273560, 0.00640572, -0.33150232, -0.94331437, -0.01494254, 0.02282345, -0.00076363, -0.00299025, 0.00000000, 0.00000000, 0.00000000, 0.00000000
1, 0.9025, 322, -0.02410319, -0.02684283, 1.00245857, 0.25199121, -2.13339567, 3.66105962, 0.00000000, 0.00000000, 0.00000000, 178.14176941, 0.12983845, 141.26341248, 0.00644661, -0.33157837, -0.94328767, -0.01492243, 0.02636930, -0.00558457, -0.00298709, 0.00000000, 0.00000000, 0.00000000, 0.00000000
1, 0.9050, 323, -0.02561398, -0.02102579, 1.00198913, -0.02900860, -2.41187239, 3.44695354, 0.00000000, 0.00000000, 0.00000000, 178.14167786, 0.13558565, 141.25460815, 0.00649533, -0.33165008, -0.94326240, -0.01490607, 0.02798040, -0.01140323, -0.00251794, 0.00000000, 0.00000000, 0.00000000, 0.00000000
1, 0.9075, 324, -0.03096966, -0.02007239, 1.00000262, -0.38004944, -3.24939609, 3.36891365, 0.00000000, 0.00000000, 0.00000000, 178.14071655, 0.14343166, 141.24592590, 0.00656386, -0.33172038, -0.94323742, -0.01489085, 0.03347302, -0.01237356, -0.00053221, 0.00000000, 0.00000000, 0.00000000, 0.00000000
1, 0.9100, 325, -0.03295451, -0.01473608, 0.99855286, -0.52020609, -3.73794317, 3.36489415, 0.00000000, 0.00000000, 0.00000000, 178.15808105, 0.11486083, 141.23683167, 0.00627956, -0.33180010, -0.94321227, -0.01483003, 0.03495921, -0.01740676, 0.00092834, 0.00000000, 0.00000000, 0.00000000, 0.00000000
1, 0.9125, 326, -0.03637130, -0.01133808, 0.99562043, -0.58770996, -4.15337038, 3.01326680, 0.00000000, 0.00000000, 0.00000000, 178.15661621, 0.12499669, 141.22897339, 0.00636830, -0.33186337, -0.94318974, -0.01481247, 0.03855290, -0.02083067, 0.00385970, 0.00000000, 0.00000000, 0.00000000, 0.00000000
1, 0.9150, 327, -0.03836013, -0.00502778, 0.99368852, -0.44374764, -4.42885876, 2.73469400, 0.00000000, 0.00000000, 0.00000000, 178.15547180, 0.13584319, 141.22177124, 0.00646177, -0.33192101, -0.94316918, -0.01478992, 0.04073105, -0.02716060, 0.00579047, 0.00000000, 0.00000000, 0.00000000, 0.00000000
1, 0.9175, 328, -0.04228678, 0.00030437, 0.99124891, -0.30078515, -4.49591827, 2.52684975, 0.00000000, 0.00000000, 0.00000000, 178.15470886, 0.14687376, 141.21510315, 0.00655564, -0.33197445, -0.94315010, -0.01476390, 0.04485021, -0.03250613, 0.00822914, 0.00000000, 0.00000000, 0.00000000, 0.00000000
1, 0.9200, 329, -0.04180659, 0.00274403, 0.98980415, -0.08803543, -4.21418524, 2.32149816, 0.00000000, 0.00000000, 0.00000000, 178.15447998, 0.15721676, 141.20896912, 0.00664224, -0.33202356, -0.94313258, -0.01473552, 0.04455054, -0.03494989, 0.00967342, 0.00000000, 0.00000000, 0.00000000, 0.00000000
1, 0.9225, 330, -0.04375927, 0.00712827, 0.98591447, 0.12590824, -4.21056032, 2.04509616, 0.00000000, 0.00000000, 0.00000000, 178.15476990, 0.16757306, 141.20350647, 0.00672731, -0.33206701, -0.94311720, -0.01470273, 0.04668397, -0.03932890, 0.01356268, 0.00000000, 0.00000000, 0.00000000, 0.00000000
1, 0.9250, 331, -0.04429660, 0.01001813, 0.98836011, 0.33888188, -3.85853887, 1.77030408, 0.00000000, 0.00000000, 0.00000000, 178.15559387, 0.17707199, 141.19877625, 0.00680368, -0.33210474, -0.94310391, -0.01466806, 0.04738708, -0.04220421, 0.01111698, 0.00000000, 0.00000000, 0.00000000, 0.00000000
1, 0.9275, 332, -0.04334271, 0.01244969, 0.98838019, 0.48032200, -3.22819853, 1.49591780, 0.00000000, 0.00000000, 0.00000000, 178.15678406, 0.18501805, 141.19477844, 0.00686614, -0.33213663, -0.94309276, -0.01463501, 0.04657188, -0.04461503, 0.01109719, 0.00000000, 0.00000000, 0.00000000, 0.00000000
1, 0.9300, 333, -0.04383015, 0.01293565, 0.98789173, 0.48082942, -2.80768871, 1.21880019, 0.00000000, 0.00000000, 0.00000000, 178.15798950, 0.19193581, 141.19151306, 0.00692004, -0.33216265, -0.94308370, -0.01460496, 0.04718007, -0.04508020, 0.01158583, 0.00000000, 0.00000000, 0.00000000, 0.00000000
1, 0.9325, 334, -0.04187931, 0.01245830, 0.98839206, 0.76359028, -2.10687590, 0.94650108, 0.00000000, 0.00000000, 0.00000000, 178.15989685, 0.19712427, 141.18898010, 0.00695755, -0.33218291, -0.94307679, -0.01457412, 0.04531978, -0.04456969, 0.01108629, 0.00000000, 0.00000000, 0.00000000, 0.00000000
1, 0.9350, 335, -0.04188835, 0.01293981, 0.98888147, 1.18947804, -1.68276834, 0.53515399, 0.00000000, 0.00000000, 0.00000000, 178.16285706, 0.20128615, 141.18750000, 0.00698338, -0.33219463, -0.94307303, -0.01453753, 0.04540145, -0.04499941, 0.01059824, 0.00000000, 0.00000000, 0.00000000, 0.00000000
1, 0.9375, 336, -0.03945114, 0.01051005, 0.99132395, 1.61558926, -1.18837297, 0.05436645, 0.00000000, 0.00000000, 0.00000000, 178.16690063, 0.20425135, 141.18727112, 0.00699611, -0.33219638, -0.94307297, -0.01449569, 0.04301599, -0.04249921, 0.00815797, 0.00000000, 0.00000000, 0.00000000, 0.00000000
1, 0.9400, 337, -0.03748764, 0.00808839, 0.99230146, 1.82833898, -0.90664017, -0.15098508, 0.00000000, 0.00000000, 0.00000000, 178.17146301, 0.20652890, 141.18759155, 0.00700156, -0.33219385, -0.94307452, -0.01445148, 0.04109224, -0.03999778, 0.00718290, 0.00000000, 0.00000000, 0.00000000, 0.00000000
1, 0.9425, 338, -0.03212256, 0.00714230, 0.99331391, 2.18324518, -0.55321729, -0.49377432, 0.00000000, 0.00000000, 0.00000000, 178.17692566, 0.20795059, 141.18878174, 0.00699727, -0.33218417, -0.94307864, -0.01440247, 0.03575197, -0.03895640, 0.00617337, 0.00000000, 0.00000000, 0.00000000, 0.00000000
1, 0.9450, 339, -0.02818580, 0.00279510, 0.99381047, 2.32643151, -0.54998875, -0.77105910, 0.00000000, 0.00000000, 0.00000000, 178.18275452, 0.20938616, 141.19064331, 0.00699197, -0.33216885, -0.94308484, -0.01435050, 0.03184028, -0.03450762, 0.00567991, 0.00000000, 0.00000000, 0.00000000, 0.00000000
1, 0.9475, 340, -0.02426242, -0.00058542, 0.99479890, 2.82362866, -0.47448906, -1.11337149, 0.00000000, 0.00000000, 0.00000000, 178.18981934, 0.21066006, 141.19338989, 0.00698162, -0.33214653, -0.94309384, -0.01428880, 0.02793913, -0.03100378, 0.00469536, 0.00000000, 0.00000000, 0.00000000, 0.00000000
1, 0.9500, 341, -0.02426242, -0.00058542, 0.99479890, 2.82362866, -0.47448906, -1.11337149, 0.00000000, 0.00000000, 0.00000000, 178.19689941, 0.21193351, 141.19613647, 0.00697127, -0.33212414, -0.94310260, -0.01422709, 0.02796135, -0.03088045, 0.00469917, 0.00000000, 0.00000000, 0.00000000, 0.00000000
1, 0.9525, 342, -0.01593654, -0.00637327, 0.99678457, 4.09982824, -0.18376215, -1.65429676, 0.00000000, 0.00000000, 0.00000000, 178.20715332, 0.21252254, 141.20025635, 0.00694586, -0.33209080, -0.94311583, -0.01414115, 0.01964575, -0.02491354, 0.00271904, 0.00000000, 0.00000000, 0.00000000, 0.00000000
1, 0.9550, 343, -0.01593654, -0.00637327, 0.99678457, 4.09982824, -0.18376215, -1.65429676, 0.00000000, 0.00000000, 0.00000000, 178.21740723, 0.21311085, 141.20437622, 0.00692045, -0.33205745, -0.94312906, -0.01405521, 0.01965601, -0.02473447, 0.00272459, 0.00000000, 0.00000000, 0.00000000, 0.00000000
1, 0.9575, 344, -0.00465674, -0.01358844, 0.99732560, 5.01437569, 1.42279637, -1.49589133, 0.00000000, 0.00000000, 0.00000000, 178.22996521, 0.20967160, 141.20822144, 0.00685531, -0.33202696, -0.94314164, -0.01396212, 0.00831619, -0.01730037, 0.00219053, 0.00000000, 0.00000000, 0.00000000, 0.00000000
1, 0.9600, 345, -0.00465674, -0.01358844, 0.99732560, 5.01437569, 1.42279637, -1.49589133, 0.00000000, 0.00000000, 0.00000000, 178.25979614, 0.19784977, 141.21186829, 0.00667112, -0.33200026, -0.94315553, -0.01375103, 0.00810987, -0.01677992, 0.00220722, 0.00000000, 0.00000000, 0.00000000, 0.00000000
1, 0.9625, 346, 0.00804018, -0.01985391, 1.00177920, 5.64602900, 2.67815495, -1.20310152, 0.00000000, 0.00000000, 0.00000000, 178.27392578, 0.19124848, 141.21508789, 0.00657548, -0.33197552, -0.94316632, -0.01365408, -0.00470227, -0.01026803, -0.00223851, 0.00000000, 0.00000000, 0.00000000, 0.00000000
1, 0.9650, 347, 0.00804018, -0.01985391, 1.00177920, 5.64602900, 2.67815495, -1.20310152, 0.00000000, 0.00000000, 0.00000000, 178.28805542, 0.18464646, 141.21829224, 0.00647984, -0.33195075, -0.94317710, -0.01355713, -0.00481750, -0.01002162, -0.00223076, 0.00000000, 0.00000000, 0.00000000, 0.00000000
1, 0.9675, 348, 0.01732976, -0.02906506, 1.00813842, 6.06621552, 3.79357433, -0.98336595, 0.00000000, 0.00000000, 0.00000000, 178.30322266, 0.17523985, 141.22102356, 0.00635814, -0.33193025, -0.94318652, -0.01345964, -0.01427126, -0.00054576, -0.00858158, 0.00000000, 0.00000000, 0.00000000, 0.00000000
1, 0.9700, 349, 0.01979337, -0.03391699, 1.01008177, 5.92231226, 4.34899521, -0.84302986, 0.00000000, 0.00000000, 0.00000000, 178.31803894, 0.16443427, 141.22346497, 0.00622601, -0.33191246, -0.94319499, -0.01336915, -0.01692346, 0.00456458, -0.01051682, 0.00000000, 0.00000000, 0.00000000, 0.00000000
1, 0.9725, 350, 0.02028770, -0.03781737, 1.01298797, 5.92031288, 4.76585245, -0.70157266, 0.00000000, 0.00000000, 0.00000000, 178.33283997, 0.15257600, 141.22555542, 0.00608528, -0.33189744, -0.94320244, -0.01328174, -0.01762476, 0.00872326, -0.01341480, 0.00000000, 0.00000000, 0.00000000, 0.00000000
1, 0.9750, 351, 0.02028592, -0.04026147, 1.01541066, 5.77738094, 4.97287846, -0.56284672, 0.00000000, 0.00000000, 0.00000000, 178.34729004, 0.14018978, 141.22734070, 0.00594128, -0.33188519, -0.94320881, -0.01319879, -0.01783915, 0.01141940, -0.01582975, 0.00000000, 0.00000000, 0.00000000, 0.00000000
1, 0.9775, 352, 0.01879254, -0.04273609, 1.02074349, 5.56260157, 4.96803617, -0.14691958, 0.00000000, 0.00000000, 0.00000000, 178.36120605, 0.12778549, 141.22804260, 0.00579882, -0.33188146, -0.94321215, -0.01312028, -0.01656227, 0.01413665, -0.02115494, 0.00000000, 0.00000000, 0.00000000, 0.00000000
1, 0.9800, 353, 0.01634670, -0.04568700, 1.02411795, 5.13760900, 4.82508039, -0.01333413, 0.00000000, 0.00000000, 0.00000000, 178.37403870, 0.11572865, 141.22842407, 0.00566233, -0.33188045, -0.94321424, -0.01304949, -0.01432686, 0.01731164, -0.02452260, 0.00000000, 0.00000000, 0.00000000, 0.00000000
1, 0.9825, 354, 0.01046456, -0.04623217, 1.02747703, 4.64285946, 4.47329903, 0.04864012, 0.00000000, 0.00000000, 0.00000000, 178.38565063, 0.10454644, 141.22862244, 0.00553665, -0.33188075, -0.94321573, -0.01298635, -0.00863989, 0.01805930, -0.02787554, 0.00000000, 0.00000000, 0.00000000, 0.00000000
1, 0.9850, 355, 0.00703082, -0.04675568, 1.02988183, 4.00695324, 3.84140015, 0.17732354, 0.00000000, 0.00000000, 0.00000000, 178.39567566, 0.09493437, 141.22845459, 0.00542854, -0.33188376, -0.94321603, -0.01293173, -0.00537390, 0.01875756, -0.03027523, 0.00000000, 0.00000000, 0.00000000, 0.00000000
1, 0.9875, 356, 0.00507998, -0.04627833, 1.02938151, 3.30134916, 3.28060961, 0.09615901, 0.00000000, 0.00000000, 0.00000000, 178.40393066, 0.08672941, 141.22843933, 0.00533710, -0.33188519, -0.94321668, -0.01288756, -0.00356627, 0.01842421, -0.02977074, 0.00000000, 0.00000000, 0.00000000, 0.00000000
1, 0.9900, 357, 0.00357609, -0.04387572, 1.03132999, 2.45378327, 2.57844949, 0.15211020, 0.00000000, 0.00000000, 0.00000000, 178.41006470, 0.08027525, 141.22824097, 0.00526624, -0.33188790, -0.94321662, -0.01285575, -0.00217502, 0.01612862, -0.03171606, 0.00000000, 0.00000000, 0.00000000, 0.00000000
1, 0.9925, 358, 0.00063229, -0.04146345, 1.03083158, 1.53584731, 1.73653495, 0.20653474, 0.00000000, 0.00000000, 0.00000000, 178.41390991, 0.07592133, 141.22784424, 0.00521932, -0.33189186, -0.94321573, -0.01283674, 0.00069279, 0.01378331, -0.03121568, 0.00000000, 0.00000000, 0.00000000, 0.00000000
1, 0.9950, 359, -0.00088391, -0.03662771, 1.03181803, 0.54801995, 1.03540814, 0.05143338, 0.00000000, 0.00000000, 0.00000000, 178.41526794, 0.07333032, 141.22778320, 0.00519404, -0.33189270, -0.94321567, -0.01283297, 0.00216377, 0.00897147, -0.03220142, 0.00000000, 0.00000000, 0.00000000, 0.00000000
1, 0.9975, 360, -0.00334390, -0.03323858, 1.03084147, -0.29751667, 0.05635836, -0.10319102, 0.00000000, 0.00000000, 0.00000000, 178.41453552, 0.07319667, 141.22804260, 0.00519506, -0.33189049, -0.94321626, -0.01283949, 0.00462142, 0.00556937, -0.03122514, 0.00000000, 0.00000000, 0.00000000, 0.00000000
1, 1.0000, 361, -0.00434049, -0.02984085, 1.02987671, -0.85893428, -0.70963228, -0.53236890, 0.00000000, 0.00000000, 0.00000000, 178.41238403, 0.07500700, 141.22932434, 0.00521603, -0.33187965, -0.94321978, -0.01285196, 0.00564960, 0.00213421, -0.03026140, 0.00000000, 0.00000000, 0.00000000, 0.00000000
1, 1.0025, 362, -0.00725610, -0.02740665, 1.02645648, -1.27841926, -1.47422075, -1.02954412, 0.00000000, 0.00000000, 0.00000000, 178.40919495, 0.07876255, 141.23181152, 0.00525591, -0.33185872, -0.94322670, -0.01286748, 0.00863076, -0.00035569, -0.02684277, 0.00000000, 0.00000000, 0.00000000, 0.00000000
1, 1.0050, 363, -0.00922864, -0.02450347, 1.02596819, -1.62795281, -2.09966326, -1.45543027, 0.00000000, 0.00000000, 0.00000000, 178.40512085, 0.08411084, 141.23529053, 0.00531132, -0.33182919, -0.94323653, -0.01288561, 0.01069665, -0.00332978, -0.02635676, 0.00000000, 0.00000000, 0.00000000, 0.00000000
1, 1.0075, 364, -0.01074591, -0.02113419, 1.02840853, -1.69526255, -2.58476925, -1.80737948, 0.00000000, 0.00000000, 0.00000000, 178.40089417, 0.09069622, 141.23963928, 0.00537729, -0.33179253, -0.94324893, -0.01290158, 0.01232886, -0.00677289, -0.02879936, 0.00000000, 0.00000000, 0.00000000, 0.00000000
1, 1.0100, 365, -0.01322433, -0.01727086, 1.02889526, -1.97459090, -2.86081100, -2.30053544, 0.00000000, 0.00000000, 0.00000000, 178.40779114, 0.08265809, 141.24497986, 0.00529057, -0.33174968, -0.94326490, -0.01286837, 0.01466699, -0.01051600, -0.02928246, 0.00000000, 0.00000000, 0.00000000, 0.00000000
1, 1.0125, 366, -0.01373056, -0.01679952, 1.03035486, -2.04267693, -3.06720090, -2.65119624, 0.00000000, 0.00000000, 0.00000000, 178.40269470, 0.09050759, 141.25138855, 0.00536921, -0.33169574, -0.94328314, -0.01288790, 0.01531022, -0.01107625, -0.03074479, 0.00000000, 0.00000000, 0.00000000, 0.00000000
1, 1.0150, 367, -0.01517154, -0.01825631, 1.02936161, -2.18171430, -3.20430851, -3.00241804, 0.00000000, 0.00000000, 0.00000000, 178.39723206, 0.09872490, 141.25866699, 0.00545179, -0.33163458, -0.94330388, -0.01290926, 0.01689462, -0.00971440, -0.02975441, 0.00000000, 0.00000000, 0.00000000, 0.00000000
1, 1.0175, 368, -0.01859952, -0.01730972, 1.02982581, -2.17981887, -3.13158512, -3.35090804, 0.00000000, 0.00000000, 0.00000000, 178.39181519, 0.10678561, 141.26683044, 0.00553295, -0.33156624, -0.94332719, -0.01293107, 0.02046328, -0.01075581, -0.03022140, 0.00000000, 0.00000000, 0.00000000, 0.00000000
1, 1.0200, 369, -0.02593892, -0.01590455, 1.03074801, -2.03634906, -2.77813506, -3.83586979, 0.00000000, 0.00000000, 0.00000000, 178.38673401, 0.11399782, 141.27622986, 0.00560594, -0.33148783, -0.94335401, -0.01295242, 0.02792857, -0.01224948, -0.03114647, 0.00000000, 0.00000000, 0.00000000, 0.00000000
1, 1.0225, 370, -0.03082488, -0.01398526, 1.02974427, -1.96463633, -2.21665263, -4.25098562, 0.00000000, 0.00000000, 0.00000000, 178.38185120, 0.11983702, 141.28669739, 0.00566697, -0.33140072, -0.94338393, -0.01297630, 0.03291644, -0.01425408, -0.03014529, 0.00000000, 0.00000000, 0.00000000, 0.00000000
1, 1.0250, 371, -0.03768303, -0.00867397, 1.02776814, -1.75079691, -1.72344744, -4.73442030, 0.00000000, 0.00000000, 0.00000000, 178.37750244, 0.12447868, 141.29841614, 0.00571644, -0.33130351, -0.94341737, -0.01299928, 0.03985559, -0.01964128, -0.02817142, 0.00000000, 0.00000000, 0.00000000, 0.00000000
1, 1.0275, 372, -0.04459540, -0.00047362, 1.02872837, -1.67735338, -0.87959599, -5.56682348, 0.00000000, 0.00000000, 0.00000000, 178.37333679, 0.12707144, 141.31225586, 0.00574825, -0.33118895, -0.94345701, -0.01302676, 0.04681321, -0.02791426, -0.02913380, 0.00000000, 0.00000000, 0.00000000, 0.00000000
1, 1.0300, 373, -0.05149042, 0.00578607, 1.02967882, -1.46220064, -0.10463026, -6.39778233, 0.00000000, 0.00000000, 0.00000000, 178.36972046, 0.12778755, 141.32823181, 0.00576278, -0.33105710, -0.94350278, -0.01305529, 0.05372073, -0.03423711, -0.03008616, 0.00000000, 0.00000000, 0.00000000, 0.00000000
1, 1.0325, 374, -0.05939968, 0.01054434, 1.03597105, -1.52888358, 0.39064118, -7.30332327, 0.00000000, 0.00000000, 0.00000000, 178.36593628, 0.12733141, 141.34651184, 0.00576787, -0.33090648, -0.94355518, -0.01308867, 0.06162204, -0.03906135, -0.03638024, 0.00000000, 0.00000000, 0.00000000, 0.00000000
1, 1.0350, 375, -0.05943875, 0.01491083, 1.03599298, -1.45338023, 1.09756970, -8.41541958, 0.00000000, 0.00000000, 0.00000000, 178.36235046, 0.12518927, 141.36763000, 0.00575817, -0.33073273, -0.94361567, -0.01312545, 0.06162373, -0.04349042, -0.03640384, 0.00000000, 0.00000000, 0.00000000, 0.00000000
1, 1.0375, 376, -0.06092421, 0.01683924, 1.03647792, -1.37651885, 1.31674457, -9.52976990, 0.00000000, 0.00000000, 0.00000000, 178.35894775, 0.12258041, 141.39154053, 0.00574372, -0.33053598, -0.94368416, -0.01316209, 0.06306365, -0.04547797, -0.03689034, 0.00000000, 0.00000000, 0.00000000, 0.00000000
1, 1.0400, 377, -0.05649240, 0.00956930, 1.03891170, -1.01740384, 1.81622243, -10.63930321, 0.00000000, 0.00000000, 0.00000000, 178.35646057, 0.11880405, 141.41825867, 0.00571672, -0.33031631, -0.94376081, -0.01319480, 0.05856593, -0.03825143, -0.03932524, 0.00000000, 0.00000000, 0.00000000, 0.00000000
1, 1.0425, 378, -0.04910882, -0.00206089, 1.04280806, -0.72994190, 2.03415203, -11.47195530, 0.00000000, 0.00000000, 0.00000000, 178.35470581, 0.11454383, 141.44706726, 0.00568340, -0.33007941, -0.94384348, -0.01322306, 0.05110800, -0.02665206, -0.04322226, 0.00000000, 0.00000000, 0.00000000, 0.00000000
1, 1.0450, 379, -0.04176502, -0.01030222, 1.04769552, -0.51587880, 2.59764552, -12.02483273, 0.00000000, 0.00000000, 0.00000000, 178.35346985, 0.10891593, 141.47729492, 0.00563710, -0.32983100, -0.94393027, -0.01325090, 0.04366597, -0.01843220, -0.04811032, 0.00000000, 0.00000000, 0.00000000, 0.00000000
1, 1.0475, 380, -0.03446101, -0.01515470, 1.05357409, -0.51528186, 3.43805623, -12.50930309, 0.00000000, 0.00000000, 0.00000000, 178.35224915, 0.10122337, 141.50878906, 0.00557362, -0.32957232, -0.94402045, -0.01328471, 0.03622768, -0.01360118, -0.05398923, 0.00000000, 0.00000000, 0.00000000, 0.00000000
1, 1.0500, 381, -0.02474690, -0.02099241, 1.06336319, -1.00989687, 4.69559050, -13.20730972, 0.00000000, 0.00000000, 0.00000000, 178.34977722, 0.09043949, 141.54216003, 0.00548800, -0.32929882, -0.94411570, -0.01333766, 0.02632537, -0.00780656, -0.06377931, 0.00000000, 0.00000000, 0.00000000, 0.00000000
1, 1.0525, 382, -0.01739876, -0.02971891, 1.06824839, -1.29703069, 6.01729822, -13.13495922, 0.00000000, 0.00000000, 0.00000000, 178.34657288, 0.07634924, 141.57540894, 0.00537720, -0.32902634, -0.94421029, -0.01340603, 0.01873131, 0.00086420, -0.06866564, 0.00000000, 0.00000000, 0.00000000, 0.00000000
1, 1.0550, 383, -0.01342871, -0.03990271, 1.07066345, -1.58570170, 6.98695755, -12.64564323, 0.00000000, 0.00000000, 0.00000000, 178.34265137, 0.05980255, 141.60751343, 0.00524836, -0.32876360, -0.94430143, -0.01348737, 0.01447246, 0.01097950, -0.07108237, 0.00000000, 0.00000000, 0.00000000, 0.00000000
1, 1.0575, 384, -0.00899113, -0.04570254, 1.07115662, -1.94621944, 7.74474716, -11.87912560, 0.00000000, 0.00000000, 0.00000000, 178.33781433, 0.04130894, 141.63775635, 0.00510626, -0.32851639, -0.94438690, -0.01358165, 0.00971211, 0.01669490, -0.07157774, 0.00000000, 0.00000000, 0.00000000, 0.00000000
1, 1.0600, 385, -0.00315556, -0.05105610, 1.07799482, -2.37727118, 8.57242870, -11.18293285, 0.00000000, 0.00000000, 0.00000000, 178.32614136, 0.01966263, 141.66639709, 0.00495790, -0.32828242, -0.94446671, -0.01374117, 0.00349874, 0.02184477, -0.07842161, 0.00000000, 0.00000000, 0.00000000, 0.00000000
1, 1.0625, 386, 0.00221135, -0.05590909, 1.08239663, -3.09099340, 9.11919785, -10.42179489, 0.00000000, 0.00000000, 0.00000000, 178.31842041, -0.00236277, 141.69309998, 0.00479526, -0.32806459, -0.94454139, -0.01386904, -0.00225259, 0.02656302, -0.08282728, 0.00000000, 0.00000000, 0.00000000, 0.00000000
1, 1.0650, 387, 0.01052242, -0.06268553, 1.08681238, -4.36749220, 9.38773060, -10.08757973, 0.00000000, 0.00000000, 0.00000000, 178.30749512, -0.02507934, 141.71900940, 0.00463612, -0.32785341, -0.94461316, -0.01402518, -0.01096014, 0.03314888, -0.08724882, 0.00000000, 0.00000000, 0.00000000, 0.00000000
1, 1.0675, 388, 0.02029474, -0.07238629, 1.09414721, -6.13954592, 9.44323158, -9.62098598, 0.00000000, 0.00000000, 0.00000000, 178.29212952, -0.04796331, 141.74375916, 0.00448837, -0.32765162, -0.94468105, -0.01421827, -0.02113187, 0.04258160, -0.09459183, 0.00000000, 0.00000000, 0.00000000, 0.00000000
1, 1.0700, 389, 0.02570798, -0.08453138, 1.10046017, -8.05105495, 9.36101532, -9.43584919, 0.00000000, 0.00000000, 0.00000000, 178.27197266, -0.07064810, 141.76802063, 0.00435592, -0.32745346, -0.94474679, -0.01445019, -0.02694102, 0.05437511, -0.10091567, 0.00000000, 0.00000000, 0.00000000, 0.00000000
1, 1.0725, 390, 0.02819477, -0.09620486, 1.10626507, -10.38477993, 8.44027042, -9.25987339, 0.00000000, 0.00000000, 0.00000000, 178.24597168, -0.09103565, 141.79179382, 0.00425907, -0.32725897, -0.94481045, -0.01472365, -0.02978365, 0.06559513, -0.10673490, 0.00000000, 0.00000000, 0.00000000, 0.00000000
1, 1.0750, 391, 0.02578585, -0.10645518, 1.11252475, -13.14127350, 7.03000116, -9.16120911, 0.00000000, 0.00000000, 0.00000000, 178.21308899, -0.10789458, 141.81524658, 0.00421093, -0.32706663, -0.94487214, -0.01504386, -0.02766896, 0.07527161, -0.11301273, 0.00000000, 0.00000000, 0.00000000, 0.00000000
1, 1.0775, 392, 0.02284031, -0.11283801, 1.12026107, -16.39029121, 4.92138100, -9.21146870, 0.00000000, 0.00000000, 0.00000000, 178.17205811, -0.11946549, 141.83863831, 0.00422946, -0.32687363, -0.94493294, -0.01541600, -0.02492538, 0.08093885, -0.12077215, 0.00000000, 0.00000000, 0.00000000, 0.00000000
1, 1.0800, 393, 0.01896871, -0.12211929, 1.12553990, -19.70565414, 1.97925973, -9.61528778, 0.00000000, 0.00000000, 0.00000000, 178.12274170, -0.12363391, 141.86282349, 0.00433241, -0.32667291, -0.94499493, -0.01583546, -0.02112653, 0.08935988, -0.12607899, 0.00000000, 0.00000000, 0.00000000, 0.00000000
1, 1.0825, 394, 0.01509889, -0.12895648, 1.12839603, -23.23217583, -1.66206062, -9.88545132, 0.00000000, 0.00000000, 0.00000000, 178.06460571, -0.11865885, 141.88737488, 0.00453567, -0.32646742, -0.94505703, -0.01630165, -0.01716988, 0.09518304, -0.12896869, 0.00000000, 0.00000000, 0.00000000, 0.00000000
1, 1.0850, 395, 0.00828528, -0.13338140, 1.13075364, -26.89886093, -5.79192829, -10.15963268, 0.00000000, 0.00000000, 0.00000000, 177.99731445, -0.10331481, 141.91226196, 0.00485028, -0.32625726, -0.94511902, -0.01681399, -0.01008846, 0.09843408, -0.13136607, 0.00000000, 0.00000000, 0.00000000, 0.00000000
